Data from mixed_try1_USB4F045381__5__00109.txt Node

Date: Thu Apr 03 19:58:50 EDT 2025
User: mmckonesweet
Spectrometer: USB4F04538
Trigger mode: 4
Integration Time (sec): 2.700000E-3
Scans to average: 1
Electric dark correction enabled: true
Nonlinearity correction enabled: true
Boxcar width: 0
XAxis mode: Wavelengths
Number of Pixels in Spectrum: 3648
>>>>>Begin Spectral Data<<<<<
345.52	-41.44034
345.736	-41.44034
345.952	-41.44034
346.168	-3.51226
346.384	-24.5844
346.6	-33.01256
346.816	-5.61958
347.032	80.80005
347.248	-33.01256
347.464	-47.7609
347.68	11.23968
347.896	17.5623
348.112	19.66988
348.328	0.70246
348.544	-20.37016
348.76	-11.94141
348.975	21.7775
349.191	-35.11954
349.407	0.70246
349.623	-20.37016
349.839	-47.7609
350.055	-7.72688
350.27	-33.01256
350.486	25.99279
350.702	-14.04863
350.918	9.13219
351.133	-39.33343
351.349	-3.51226
351.565	-24.5844
351.781	-22.47729
351.996	21.7775
352.212	13.34719
352.428	-30.90556
352.644	-1.40491
352.859	36.53143
353.075	36.53143
353.291	17.5623
353.506	-73.04089
353.722	55.50246
353.938	17.5623
354.153	17.5623
354.369	-30.90556
354.584	4.91728
354.8	13.34719
355.016	-60.40135
355.231	-3.51226
355.447	-79.36032
355.662	9.13219
355.878	53.39447
356.093	-28.79853
356.309	25.99279
356.524	-33.01256
356.74	13.34719
356.955	-9.83416
357.171	-49.86771
357.386	-20.37016
357.602	-51.97449
357.817	-37.2265
358.033	-33.01256
358.248	-28.79853
358.464	-62.50801
358.679	-30.90556
358.895	118.75249
359.11	9.13219
359.325	-22.47729
359.541	17.5623
359.756	-60.40135
359.972	44.96277
360.187	-9.83416
360.402	-41.44034
360.618	-41.44034
360.833	-16.15583
361.048	-37.2265
361.264	-43.54722
361.479	97.66692
361.694	-43.54722
361.909	15.45473
362.125	-54.08124
362.34	-56.18797
362.555	-3.51226
362.77	21.7775
362.986	-28.79853
363.201	-24.5844
363.416	42.8549
363.631	-70.93437
363.847	25.99279
364.062	0.70246
364.277	2.80986
364.492	-11.94141
364.707	-16.15583
364.922	42.8549
365.138	-16.15583
365.353	-41.44034
365.568	-16.15583
365.783	0.70246
365.998	-16.15583
366.213	-33.01256
366.428	-3.51226
366.643	2.80986
366.858	15.45473
367.073	72.36716
367.288	-56.18797
367.503	0.70246
367.718	-26.69148
367.933	-20.37016
368.148	0.70246
368.363	28.10047
368.578	2.80986
368.793	-7.72688
369.008	-1.40491
369.223	42.8549
369.438	-3.51226
369.653	40.74705
369.868	-24.5844
370.083	-33.01256
370.298	25.99279
370.513	51.28651
370.728	-73.04089
370.943	13.34719
371.157	-5.61958
371.372	-24.5844
371.587	-1.40491
371.802	-33.01256
372.017	-30.90556
372.232	34.42366
372.446	19.66988
372.661	2.80986
372.876	21.7775
373.091	38.63923
373.306	-11.94141
373.52	21.7775
373.735	59.7185
373.95	-30.90556
374.165	-5.61958
374.379	-7.72688
374.594	-60.40135
374.809	9.13219
375.023	21.7775
375.238	-26.69148
375.453	2.80986
375.667	-7.72688
375.882	-28.79853
376.097	-37.2265
376.311	61.82655
376.526	59.7185
376.741	9.13219
376.955	51.28651
377.17	32.3159
377.384	-1.40491
377.599	80.80005
377.813	23.88513
378.028	34.42366
378.242	80.80005
378.457	68.15085
378.672	4.91728
378.886	25.99279
379.101	-47.7609
379.315	51.28651
379.53	-7.72688
379.744	-5.61958
379.958	80.80005
380.173	-18.26301
380.387	61.82655
380.602	-51.97449
380.816	19.66988
381.031	-24.5844
381.245	-47.7609
381.459	-7.72688
381.674	25.99279
381.888	17.5623
382.103	13.34719
382.317	53.39447
382.531	-28.79853
382.746	23.88513
382.96	25.99279
383.174	2.80986
383.388	9.13219
383.603	-22.47729
383.817	25.99279
384.031	19.66988
384.246	70.25899
384.46	9.13219
384.674	-33.01256
384.888	-5.61958
385.103	-16.15583
385.317	-1.40491
385.531	95.55848
385.745	19.66988
385.959	0.70246
386.174	36.53143
386.388	19.66988
386.602	85.01664
386.816	-37.2265
387.03	-14.04863
387.244	9.13219
387.458	-16.15583
387.672	51.28651
387.887	-47.7609
388.101	-60.40135
388.315	32.3159
388.529	25.99279
388.743	11.23968
388.957	-18.26301
389.171	40.74705
389.385	-7.72688
389.599	28.10047
389.813	146.16698
390.027	-14.04863
390.241	51.28651
390.455	-64.61464
390.669	4.91728
390.883	-5.61958
391.097	36.53143
391.311	19.66988
391.525	-16.15583
391.738	32.3159
391.952	17.5623
392.166	9.13219
392.38	78.6918
392.594	-24.5844
392.808	-16.15583
393.022	30.20817
393.236	23.88513
393.449	61.82655
393.663	-24.5844
393.877	25.99279
394.091	21.7775
394.305	30.20817
394.518	9.13219
394.732	-33.01256
394.946	70.25899
395.16	25.99279
395.373	38.63923
395.587	0.70246
395.801	17.5623
396.015	30.20817
396.228	63.93463
396.442	91.34168
396.656	0.70246
396.869	-7.72688
397.083	25.99279
397.297	63.93463
397.51	30.20817
397.724	-45.65407
397.938	9.13219
398.151	21.7775
398.365	4.91728
398.578	-14.04863
398.792	42.8549
399.005	38.63923
399.219	2.80986
399.433	32.3159
399.646	13.34719
399.86	78.6918
400.073	47.07066
400.287	110.318
400.5	-37.2265
400.714	47.07066
400.927	-20.37016
401.141	55.50246
401.354	-7.72688
401.567	13.34719
401.781	34.42366
401.994	25.99279
402.208	53.39447
402.421	4.91728
402.635	61.82655
402.848	4.91728
403.061	17.5623
403.275	2.80986
403.488	36.53143
403.701	34.42366
403.915	106.10089
404.128	-49.86771
404.341	13.34719
404.555	-49.86771
404.768	-7.72688
404.981	17.5623
405.195	13.34719
405.408	97.66692
405.621	-22.47729
405.834	28.10047
406.048	55.50246
406.261	42.8549
406.474	-37.2265
406.687	-24.5844
406.9	51.28651
407.114	44.96277
407.327	4.91728
407.54	51.28651
407.753	-24.5844
407.966	-64.61464
408.179	38.63923
408.392	42.8549
408.605	36.53143
408.819	-3.51226
409.032	42.8549
409.245	-49.86771
409.458	76.58356
409.671	59.7185
409.884	42.8549
410.097	17.5623
410.31	42.8549
410.523	-24.5844
410.736	93.45007
410.949	-64.61464
411.162	72.36716
411.375	61.82655
411.588	44.96277
411.801	47.07066
412.014	110.318
412.227	4.91728
412.44	38.63923
412.653	59.7185
412.865	87.12496
413.078	25.99279
413.291	4.91728
413.504	61.82655
413.717	68.15085
413.93	47.07066
414.143	40.74705
414.356	87.12496
414.568	-3.51226
414.781	47.07066
414.994	70.25899
415.207	53.39447
415.42	51.28651
415.632	36.53143
415.845	66.04272
416.058	32.3159
416.271	59.7185
416.483	59.7185
416.696	44.96277
416.909	51.28651
417.121	152.49392
417.334	97.66692
417.547	-24.5844
417.759	85.01664
417.972	101.88386
418.185	63.93463
418.397	76.58356
418.61	89.23331
418.823	68.15085
419.035	120.86117
419.248	51.28651
419.46	78.6918
419.673	78.6918
419.885	32.3159
420.098	55.50246
420.311	135.62252
420.523	139.84024
420.736	72.36716
420.948	30.20817
421.161	19.66988
421.373	57.61047
421.586	44.96277
421.798	23.88513
422.01	87.12496
422.223	38.63923
422.435	13.34719
422.648	78.6918
422.86	42.8549
423.073	93.45007
423.285	70.25899
423.497	80.80005
423.71	93.45007
423.922	103.99236
424.134	127.18734
424.347	122.96987
424.559	76.58356
424.771	129.2961
424.984	51.28651
425.196	127.18734
425.408	133.51369
425.621	13.34719
425.833	152.49392
426.045	32.3159
426.257	154.60294
426.47	110.318
426.682	70.25899
426.894	76.58356
427.106	118.75249
427.318	95.55848
427.531	61.82655
427.743	144.05805
427.955	87.12496
428.167	188.35008
428.379	118.75249
428.591	118.75249
428.804	198.89714
429.016	213.66387
429.228	118.75249
429.44	209.44471
429.652	184.1314
429.864	118.75249
430.076	70.25899
430.288	118.75249
430.5	257.96985
430.712	127.18734
430.924	137.73137
431.136	177.80353
431.348	133.51369
431.56	209.44471
431.772	201.00661
431.984	146.16698
432.196	190.45945
432.408	118.75249
432.62	196.78769
432.832	182.02209
433.044	158.82104
433.256	224.21213
433.468	144.05805
433.679	247.42003
433.891	289.62213
434.103	236.87069
434.315	222.10244
434.527	188.35008
434.739	205.22562
434.95	163.03922
435.162	291.73244
435.374	190.45945
435.586	293.84276
435.798	264.29997
436.009	293.84276
436.221	323.38914
436.433	291.73244
436.645	207.33515
436.856	257.96985
437.068	262.18991
437.28	272.74039
437.491	222.10244
437.703	238.98052
437.915	226.32184
438.126	329.72097
438.338	274.85054
438.55	243.20024
438.761	262.18991
438.973	376.15915
439.184	295.95309
439.396	380.38121
439.608	264.29997
439.819	314.94696
440.031	262.18991
440.242	302.28422
440.454	249.52996
440.665	317.05747
440.877	405.71498
441.088	338.16365
441.3	397.27012
441.511	314.94696
441.723	283.29134
441.934	333.94227
442.146	365.60428
442.357	416.27141
442.569	424.71685
442.78	359.27157
442.991	371.93715
443.203	393.0478
443.414	447.94311
443.626	414.16009
443.837	405.71498
444.048	466.9478
444.26	397.27012
444.471	439.49697
444.682	386.71443
444.894	424.71685
445.105	266.41005
445.316	481.73009
445.528	492.28931
445.739	456.38949
445.95	431.05109
446.161	431.05109
446.373	530.30552
446.584	602.12617
446.795	464.83611
447.006	542.97862
447.217	450.05468
447.429	494.4012
447.64	595.78844
447.851	523.96917
448.062	597.901
448.273	663.39671
448.484	471.17124
448.695	530.30552
448.907	523.96917
449.118	570.43868
449.329	549.31535
449.54	709.88445
449.751	441.60848
449.962	616.91466
450.173	473.28298
450.384	642.26777
450.595	737.357
450.806	692.97918
451.017	557.76452
451.228	726.79042
451.439	692.97918
451.65	676.07463
451.861	650.7192
452.072	661.28376
452.283	815.55758
452.494	726.79042
452.705	625.3655
452.915	802.8755
453.126	724.67713
453.337	752.15065
453.548	910.6833
453.759	984.68097
453.97	802.8755
454.181	893.77083
454.391	714.11087
454.602	853.60579
454.813	936.05293
455.024	1016.39682
455.235	840.92273
455.445	906.45513
455.656	1041.77049
455.867	832.46754
456.078	900.11294
456.288	974.10935
456.499	971.99504
456.71	1141.15816
456.921	1014.28238
457.131	1107.32284
457.342	1058.68673
457.553	1065.03042
457.763	1160.19102
457.974	1327.2687
458.184	1141.15816
458.395	1246.90003
458.606	1115.78156
458.816	1304.00377
459.027	1242.6702
459.237	1217.29145
459.448	1299.7738
459.659	1259.5896
459.869	1458.40099
460.08	1397.06455
460.29	1481.66655
460.501	1608.56788
460.711	1576.843
460.922	1475.3214
461.132	1597.99297
461.343	1562.03792
461.553	1617.02778
461.764	1699.5098
461.974	1504.93207
462.184	1636.06243
462.395	1784.10186
462.605	1820.0516
462.816	1762.95439
463.026	1754.4953
463.236	1847.54171
463.447	1982.86484
463.657	1866.57286
463.867	2135.07233
464.078	2149.86823
464.288	2118.16225
464.498	2261.8811
464.709	2257.65464
464.919	2069.54308
465.129	2215.38813
465.339	2249.20163
465.55	2335.83801
465.76	2299.91753
465.97	2418.23295
466.18	2447.80676
466.391	2764.52566
466.601	2582.9735
466.811	2783.51973
467.021	2671.65027
467.231	2865.81451
467.441	2566.08025
467.651	2943.86907
467.862	2804.62297
468.072	3146.29284
468.282	3215.84227
468.492	3059.85851
468.702	3239.02143
468.912	3257.98469
469.122	3316.97273
469.332	3304.33356
469.542	3599.08158
469.752	3643.26288
469.962	3493.85496
470.172	3803.08668
470.382	3603.28968
470.592	3639.05549
470.802	3805.18887
471.012	3897.66592
471.222	3920.77914
471.432	3948.09161
471.642	4122.38975
471.852	4212.63237
472.062	4281.86175
472.272	4191.6492
472.482	4361.55147
472.691	4682.08732
472.901	4267.17867
473.111	4369.93804
473.321	4617.18413
473.531	4941.48266
473.741	4700.92614
473.95	4866.21043
474.16	4742.78365
474.37	4970.74716
474.58	5185.91101
474.79	5217.22499
474.999	5196.34959
475.209	5165.03211
475.419	5296.53024
475.628	5400.82775
475.838	5507.15073
476.048	5300.70327
476.258	5767.48711
476.467	5956.7801
476.677	6170.79934
476.886	6253.8464
477.096	6214.40372
477.306	6314.03208
477.515	6185.33528
477.725	6436.41819
477.935	6293.28062
478.144	6724.43231
478.354	6604.308
478.563	6743.06537
478.773	6660.23757
478.982	7051.27811
479.192	6995.46472
479.401	7276.43339
479.611	7305.33337
479.82	7181.4459
480.03	7484.8301
480.239	7633.2555
480.449	7501.32731
480.658	7647.67985
480.868	7833.04366
481.077	8067.59667
481.287	7898.91005
481.496	8003.84102
481.705	8211.48991
481.915	8503.09138
482.124	8232.03812
482.333	8371.7138
482.543	8531.81979
482.752	8812.7545
482.961	8763.56466
483.171	8997.12416
483.38	8732.81567
483.589	8972.54985
483.799	9083.11439
484.008	8937.73191
484.217	9072.87907
484.426	9445.17212
484.636	9316.36401
484.845	9387.93209
485.054	9422.68649
485.263	9580.04517
485.472	9723.0175
485.682	9680.13376
485.891	9833.25918
486.1	9790.39264
486.309	10000.58037
486.518	10171.88239
486.727	10339.01173
486.936	10412.3572
487.146	10186.1531
487.355	10514.19795
487.564	10620.07868
487.773	11122.57222
487.982	10575.28712
488.191	10776.80258
488.4	10856.15525
488.609	11059.54413
488.818	11110.37404
489.027	11098.17548
489.236	11073.77719
489.445	11514.74898
489.654	11530.99709
489.863	11638.62577
490.072	11600.04488
490.281	11833.51166
490.49	11683.2943
490.698	11835.5413
490.907	11906.57347
491.116	12314.31404
491.325	12389.3385
491.534	12294.03553
491.743	12225.08327
491.952	12026.29074
492.16	12310.25839
492.369	12685.29336
492.578	12533.27864
492.787	12660.9733
492.996	12644.75946
493.204	13019.61208
493.413	13062.15149
493.622	13242.41439
493.831	12796.74955
494.039	13238.36393
494.248	13155.32564
494.457	13349.74525
494.665	13481.36185
494.874	13444.91582
495.083	13274.81742
495.291	13639.28099
495.5	13653.45219
495.709	13872.07404
495.917	13718.23277
496.126	13985.4204
496.335	13691.91606
496.543	13969.22856
496.752	13959.10858
496.96	13979.34848
497.169	14143.2828
497.377	14371.95847
497.586	14220.18529
497.794	14359.81697
498.003	14165.54435
498.211	14410.40615
498.42	14371.95847
498.628	14554.07445
498.837	14958.74574
499.045	14958.74574
499.254	14616.80084
499.462	15074.07276
499.671	14829.25418
499.879	15177.25962
500.087	15375.54083
500.296	15209.63195
500.504	15215.70176
500.713	15274.3767
500.921	15369.47096
501.129	15347.2148
501.338	15211.65522
501.546	15942.08998
501.754	15573.82573
501.962	15507.05571
502.171	15909.71363
502.379	15921.85472
502.587	15919.8312
502.795	16245.63636
503.004	15699.27468
503.212	16184.92423
503.42	15998.74942
503.628	16217.30384
503.837	16051.36273
504.045	16047.31552
504.253	16520.88566
504.461	16334.68371
504.669	16334.68371
504.877	16729.37232
505.085	16796.17423
505.294	16822.49087
505.502	16650.42794
505.71	16644.35544
505.918	16877.14985
506.126	16885.24763
506.334	16680.79075
506.542	17057.33545
506.75	16767.83371
506.958	17000.64557
507.166	16856.90557
507.374	16956.105
507.582	17051.26143
507.79	17247.66748
507.998	17138.32473
508.206	17573.72285
508.414	17227.41818
508.622	17735.76864
508.83	17462.32842
509.037	17436.00023
509.245	17306.3921
509.453	17549.41779
509.661	17810.72204
509.869	17830.98051
510.077	17901.88789
510.285	17806.67038
510.492	17849.21344
510.7	17997.1131
510.908	17845.16165
511.116	17828.95465
511.324	18033.5844
511.531	18183.53421
511.739	18076.13572
511.947	18451.06245
512.155	18284.863
512.362	18420.65821
512.57	18349.7183
512.778	18499.71102
512.985	18331.47736
513.193	18153.13738
513.401	18538.22604
513.608	18560.52484
513.816	18361.8791
514.024	18619.31485
514.231	18246.35697
514.439	18562.55203
514.646	18787.5941
514.854	18968.06849
515.061	18724.73964
515.269	18988.34849
515.477	18895.06379
515.684	19199.28463
515.892	19130.31989
516.099	19568.52985
516.307	19227.68326
516.514	19501.56859
516.722	19359.54456
516.929	19452.87235
517.136	19659.84797
517.344	19495.48143
517.551	19249.99702
517.759	19469.10417
517.966	19566.50065
518.173	19351.42952
518.381	19836.42037
518.588	19836.42037
518.796	19846.56918
519.003	19844.53941
519.21	19655.7892
519.418	20006.93423
519.625	20096.26285
519.832	20142.9606
520.039	20242.45453
520.247	20114.53562
520.454	20268.85257
520.661	20675.0656
520.868	20165.29509
521.076	20892.45804
521.283	20311.49706
521.49	20478.03137
521.697	20675.0656
521.904	20874.17087
522.112	20605.99759
522.319	20971.7063
522.526	20821.34314
522.733	21079.41266
522.94	20872.13898
523.147	20882.29846
523.354	21052.99306
523.561	21410.7321
523.768	21288.76155
523.975	21315.18728
524.183	21105.83296
524.39	21203.39079
524.597	21213.5536
524.804	21388.36976
525.011	21193.22808
525.218	21402.60029
525.425	21849.94423
525.632	21555.0825
525.838	21900.7907
526.045	21870.28253
526.252	22000.45673
526.459	22374.79332
526.666	21736.05688
526.873	21951.63957
527.08	22244.57504
527.287	22338.16792
527.494	21880.45183
527.701	22586.42971
527.907	22368.68901
528.114	22283.23203
528.321	22610.85178
528.528	22480.60666
528.735	22586.42971
528.941	22500.9565
529.148	22537.5871
529.355	22543.69232
529.562	22250.67869
529.768	22800.13993
529.975	22183.54042
530.182	22812.3531
530.388	22633.23912
530.595	22975.2071
530.802	22781.8204
531.008	23166.58797
531.215	22879.52774
531.422	23571.83936
531.628	23343.74277
531.835	23256.18046
532.042	23307.08806
532.248	23516.84823
532.455	23675.71755
532.661	23470.00571
532.868	23616.6486
533.074	23596.28058
533.281	23616.6486
533.487	23887.57157
533.694	23549.4353
533.9	24276.72995
534.107	23441.49367
534.313	24270.61674
534.52	24003.69718
534.726	24134.09474
534.933	24111.68185
535.139	24119.83195
535.345	24009.80931
535.552	24460.13728
535.758	24504.97339
535.965	24584.45859
536.171	24688.40654
536.377	24651.71829
536.584	24266.54129
536.79	24235.97568
536.996	24988.05636
537.203	24855.55182
537.409	24920.78359
537.615	24884.09043
537.821	24513.12554
538.028	25067.56374
538.234	24971.74758
538.44	25092.02825
538.646	24824.97526
538.853	25043.09956
539.059	24690.44479
539.265	25287.75572
539.471	25571.18747
539.677	25467.18991
539.883	25422.32985
540.09	25538.56022
540.296	25430.48615
540.502	25597.69749
540.708	25418.25171
540.914	25593.61901
541.12	25924.00144
541.326	26042.29838
541.532	25746.56761
541.738	25989.26797
541.944	25840.38144
542.15	25844.46039
542.356	25567.10904
542.562	26217.71513
542.768	25964.7928
542.974	26331.94678
543.18	26644.06987
543.386	26529.82445
543.592	26658.35089
543.798	26901.13933
544.004	26568.58575
544.21	26678.75247
544.415	26285.02958
544.621	26517.58416
544.827	26597.14706
545.033	26886.85709
545.239	26768.52121
545.445	27299.02916
545.651	26837.88992
545.856	27333.7194
546.062	27046.00602
546.268	27235.77145
546.474	27141.90752
546.679	26831.76909
546.885	26731.79729
547.091	26758.32007
547.297	26831.76909
547.502	27182.71758
547.708	27309.23213
547.914	27129.66461
548.119	27664.3153
548.325	27419.42629
548.531	26986.83426
548.736	27248.01478
548.942	27401.06034
549.147	27286.78564
549.353	27468.40267
549.559	28041.88617
549.764	27547.99081
549.97	27456.15851
550.175	28027.59899
550.381	27925.54931
550.586	27511.25759
550.792	28311.31177
550.997	28041.88617
551.203	28197.00766
551.408	28546.05403
551.614	28333.76476
551.819	28382.75357
552.025	28811.43168
552.23	28584.83888
552.435	28346.01191
552.641	28833.88752
552.846	28633.83083
553.052	28407.2482
553.257	28935.96112
553.462	28646.07891
553.668	29050.28662
553.873	28984.95736
554.078	29158.49055
554.283	29268.73906
554.489	29131.94969
554.694	28982.91584
554.899	28862.46787
555.105	28780.81028
555.31	29229.94757
555.515	29323.86445
555.72	29027.82957
555.925	28850.21912
556.131	29495.37058
556.336	29266.69739
556.541	29679.13545
556.746	29693.42864
556.951	29564.79184
557.156	29738.35043
557.361	29579.08461
557.567	29748.56001
557.772	29820.02778
557.977	29832.27953
558.182	29538.24827
558.387	29485.16167
558.592	29830.23757
558.797	29932.33702
559.002	29728.14089
559.207	29899.66489
559.412	29760.81153
559.617	29960.92536
559.822	29746.51809
560.027	29871.07702
560.232	30246.82116
560.437	30195.76667
560.642	30199.851
560.847	29893.5389
561.051	29932.33702
561.256	29956.8413
561.461	30195.76667
561.666	30257.03215
561.871	30263.15876
562.076	30275.412
562.281	30373.43954
562.485	29895.5809
562.69	30050.77589
562.895	30761.49352
563.1	30708.38863
563.305	30181.47154
563.509	30886.08936
563.714	30661.41198
563.919	30824.81208
564.123	30806.42914
564.328	30563.37597
564.533	30473.51222
564.737	30534.78269
564.942	31233.35163
565.147	31110.78362
565.351	31000.47699
565.556	30516.40143
565.761	30857.49315
565.965	30481.68155
566.17	30690.00638
566.374	31223.13742
566.579	30884.04677
566.784	31035.2027
566.988	30969.83701
567.193	31206.79476
567.397	31108.74087
567.602	31425.38605
567.806	30955.53847
568.011	31478.50446
568.215	31588.83092
568.42	31249.69444
568.624	31225.18026
568.828	31560.22729
569.033	31445.81608
569.237	31829.9323
569.442	31829.9323
569.646	31521.40862
569.85	31658.29828
570.055	31413.12811
570.259	31664.42785
570.463	32588.14866
570.668	31737.98393
570.872	31627.65067
571.076	32109.88751
571.281	32432.80281
571.485	31854.45249
571.689	31989.3184
571.893	32351.04705
572.098	32185.5022
572.302	32340.82782
572.506	32109.88751
572.71	31889.18989
572.914	32283.60117
573.119	32156.89091
573.323	32146.67269
573.527	32279.51362
573.731	32377.61728
573.935	32363.31019
574.139	32624.94306
574.343	32530.91444
574.547	32541.1347
574.751	32663.78242
574.955	32463.46213
575.159	32723.06523
575.364	32800.74926
575.568	32606.54577
575.772	32324.47718
575.976	32363.31019
576.18	32414.40745
576.383	32988.84153
576.587	32684.22454
576.791	32537.04659
576.995	32308.12667
577.199	32543.17876
577.403	32612.67818
577.607	33363.0495
577.811	33046.09139
578.015	32751.68525
578.219	33042.00204
578.422	32888.65924
578.626	33058.35949
578.83	33172.86651
579.034	32483.90196
579.238	33150.37338
579.442	33935.80401
579.645	33673.94201
579.849	33299.6524
580.053	33821.2326
580.257	33291.47233
580.46	33495.98822
580.664	33989.00158
580.868	33283.29231
581.071	33659.623
581.275	33919.43601
581.479	33694.39802
581.682	33453.03739
581.886	33633.03097
582.09	33594.16666
582.293	33647.34969
582.497	34034.01677
582.7	34224.32764
582.904	33896.93036
583.107	33579.84852
583.311	33622.80341
583.515	33770.08809
583.718	33545.07654
583.922	34371.68739
584.125	33970.58677
584.329	34171.11924
584.532	34568.19878
584.735	34817.98708
584.939	34418.76488
585.142	34189.53724
585.346	34461.75052
585.549	34731.98722
585.753	34807.7486
585.956	34574.34037
586.159	34295.95836
586.363	34912.1863
586.566	34957.24144
586.769	34349.1728
586.973	34537.49142
587.176	34951.09743
587.379	34691.03758
587.582	34756.55783
587.786	35037.11734
587.989	35106.75848
588.192	34848.70319
588.395	34953.14543
588.599	35080.13035
588.802	35342.35026
589.005	35553.41428
589.208	35885.49206
589.411	35270.64161
589.615	35452.99844
589.818	35573.90884
590.021	35448.90009
590.224	35203.0361
590.427	35221.47344
590.63	35483.73667
590.833	35172.30805
591.036	34797.51023
591.239	35268.59288
591.442	35817.83498
591.645	35823.98537
591.848	35657.94203
592.051	35520.62407
592.254	35559.56259
592.457	36133.62093
592.66	35996.21685
592.863	36254.64048
593.066	35809.63453
593.269	36209.51211
593.472	35649.74328
593.675	36779.99307
593.878	36476.22277
594.081	36250.53778
594.284	36667.08876
594.486	36874.43768
594.689	36236.17852
594.892	35973.66045
595.095	36026.97669
595.298	36260.79458
595.5	36260.79458
595.703	36656.82572
595.906	36496.74333
596.109	36195.15369
596.311	36695.82614
596.514	35977.76156
596.717	36314.13236
596.92	36623.9851
597.122	36580.88431
597.325	36706.0898
597.528	36617.82767
597.73	36973.00398
597.933	36833.37305
598.136	37141.42523
598.338	36866.22454
598.541	37055.15477
598.743	37279.07338
598.946	36862.11801
599.148	37505.13457
599.351	37143.47944
599.554	37240.03552
599.756	37270.85466
599.959	37651.09551
600.161	37028.45453
600.363	37552.41345
600.566	37825.88926
600.768	37240.03552
600.971	37538.0238
601.173	37521.57894
601.376	37322.22356
601.578	37675.76882
601.78	37254.41758
601.983	37353.04711
602.185	37223.59931
602.388	37330.44301
602.59	37696.33078
602.792	37414.69923
602.995	37542.13509
603.197	37642.87132
603.399	37572.97074
603.601	37071.58627
603.804	36806.68249
604.006	37094.18033
604.208	37281.12807
604.41	37110.61291
604.613	37482.52437
604.815	37170.18485
605.017	37525.69011
605.219	37955.47956
605.421	37418.80961
605.623	37881.42402
605.826	37832.0595
606.028	37976.05242
606.23	37484.5798
606.432	37540.07944
606.634	38404.15783
606.836	37634.64726
607.038	37375.65211
607.24	37209.21802
607.442	37252.36298
607.644	37498.96806
607.846	37694.27454
608.048	37922.56469
608.25	38220.93316
608.452	38319.74247
608.654	38208.58338
608.856	38408.27603
609.058	38474.17196
609.26	38233.28325
609.462	38311.5076
609.664	38299.15556
609.866	38249.7505
610.067	37955.47956
610.269	37589.41713
610.471	37801.20902
610.673	38638.95151
610.875	38225.04982
611.077	38255.92587
611.278	38130.3752
611.48	37751.85198
611.682	37858.79804
611.884	38855.31262
612.085	38610.11095
612.287	38453.57851
612.489	37860.85491
612.69	38863.55696
612.892	38196.23391
613.094	38731.66534
613.295	38260.04282
613.497	38336.21261
613.699	38083.04458
613.9	38632.77124
614.102	38220.93316
614.304	38159.18732
614.505	37455.80439
614.707	38054.23679
614.908	37297.56591
615.11	38218.87484
615.311	38542.1366
615.513	38095.39127
615.714	38332.09502
615.916	38509.18284
616.117	38441.22287
616.319	38323.85995
616.52	37821.7758
616.722	38115.96976
616.923	37953.42232
617.124	38233.28325
617.326	38097.44908
617.527	38251.80895
617.729	38556.55459
617.93	37899.93692
618.131	37904.05099
618.333	38371.21351
618.534	38671.91432
618.735	39084.14875
618.937	38424.74917
619.138	38268.27682
619.339	37788.86933
619.54	38245.63364
619.742	38700.75868
619.943	38375.33143
620.144	38330.03624
620.345	38597.75125
620.546	38054.23679
620.748	38494.76628
620.949	38309.44891
621.15	37992.5113
621.351	38342.38906
621.552	38789.36327
621.753	38564.79364
621.954	38719.30243
622.155	38262.10131
622.356	38422.68999
622.558	38340.33023
622.759	38729.60483
622.96	38888.29086
623.161	38575.09265
623.362	38389.74442
623.563	38560.67409
623.764	38395.92154
623.965	38624.53101
624.166	38690.45692
624.366	38706.93985
624.567	38645.13186
624.768	38939.82415
624.969	38202.40861
625.17	38762.57405
625.371	38270.33534
625.572	38046.0063
625.773	38155.07121
625.973	38490.64735
626.174	38397.9806
626.375	38865.61807
626.576	38426.80835
626.777	38375.33143
626.977	38251.80895
627.178	38589.51163
627.379	38295.03829
627.58	37821.7758
627.78	38128.31726
627.981	38577.15247
628.182	39257.40027
628.382	38853.25156
628.583	38391.80345
628.784	38449.45993
628.984	38216.81653
629.185	39143.95406
629.386	38531.83831
629.586	38981.05501
629.787	38721.36289
629.987	38814.09317
630.188	38774.93811
630.388	38913.02611
630.589	38531.83831
630.79	39051.15616
630.99	38923.33286
631.191	38791.42405
631.391	39195.51688
631.591	38935.70127
631.792	38391.80345
631.992	38682.21567
632.193	39467.87006
632.393	39445.16736
632.594	39110.95703
632.794	39005.79534
632.994	38962.50066
633.195	38880.04608
633.395	39005.79534
633.595	39273.90399
633.796	39393.57482
633.996	39533.92118
634.196	39496.76615
634.397	39261.52614
634.597	39205.83017
634.797	39699.09443
634.997	39498.83023
635.198	39432.78458
635.398	38978.99338
635.598	39767.24753
635.798	39362.62228
635.998	39139.8293
636.199	39143.95406
636.399	39189.32902
636.599	39011.98064
636.799	39527.72844
636.999	38906.84217
637.199	39203.76749
637.399	38995.48671
637.599	38579.21231
637.799	38787.30251
637.999	39455.48662
638.199	39115.08152
638.399	39191.39163
638.599	39146.01646
638.799	39915.98453
638.999	39401.82921
639.199	40070.97705
639.399	39560.75739
639.599	39119.20606
639.799	39080.02454
639.999	39009.91886
640.199	38931.57843
640.399	39531.85692
640.599	38741.96801
640.799	40116.45291
640.998	39864.33359
641.198	39730.07171
641.398	39835.41193
641.598	39513.27909
641.798	39471.99795
641.997	39583.4663
642.197	39612.37033
642.397	39837.47769
642.597	39502.95843
642.796	39474.06191
642.996	39139.8293
643.196	39595.8535
643.395	39438.97592
643.595	39928.38174
643.795	39535.98544
643.994	40027.57311
644.194	39804.4267
644.394	39996.57318
644.593	39705.2897
644.793	39773.44382
644.992	39127.45524
645.192	39513.27909
645.392	39746.59388
645.591	39792.03327
645.791	39893.25731
645.99	39606.17644
646.19	39451.35888
646.389	39777.57474
646.589	39866.3995
646.788	39922.18309
646.987	39581.40181
647.187	39678.44419
647.386	39222.33194
647.586	40085.44608
647.785	40319.09085
647.984	40281.86379
648.184	40252.91186
648.383	40269.45556
648.582	39903.58771
648.782	40331.50066
648.981	39670.18439
649.18	39416.27477
649.38	39676.37923
649.579	39680.50917
649.778	39684.63916
649.977	40441.13791
650.177	39802.3611
650.376	39932.51423
650.575	39476.12588
650.774	39922.18309
650.973	39692.89925
651.173	40000.70636
651.372	39548.37123
651.571	40112.31853
651.77	39758.98595
651.969	39509.1508
652.168	39249.14865
652.367	39769.31295
652.566	40201.21731
652.765	40484.5877
652.964	40641.87586
653.163	40335.63735
653.362	40422.51807
653.561	40217.75882
653.76	40319.09085
653.959	39899.45552
654.158	40623.24623
654.357	39957.31003
654.556	39862.26769
654.755	40573.5717
654.954	40389.41836
655.153	40027.57311
655.352	40242.57241
655.551	40091.64725
655.749	40577.711
655.948	40116.45291
656.147	40159.86655
656.346	40612.89684
656.545	40143.32746
656.743	40565.29325
656.942	40197.08204
657.141	39955.24366
657.34	39589.65986
657.538	40430.79345
657.737	40718.47397
657.936	41060.25163
658.135	40453.55164
658.333	39577.27284
658.532	39366.74916
658.731	40037.90695
658.929	40135.05817
659.128	39571.07947
659.326	39430.72082
659.525	40271.52357
659.724	39769.31295
659.922	40273.59159
660.121	39843.67505
660.319	39719.74569
660.518	39544.2426
660.716	40337.70572
660.915	40170.20383
661.113	40803.37119
661.312	40478.38029
661.51	40106.11703
661.709	40372.86956
661.907	40037.90695
662.105	40592.19889
662.304	40811.65488
662.502	40679.13786
662.701	40826.15177
662.899	40228.09763
663.097	39984.17388
663.296	40219.82656
663.494	40405.96786
663.692	40652.22604
663.891	40031.70662
664.089	40209.48798
664.287	40428.72459
664.485	40977.36743
664.684	40993.94278
664.882	40306.68144
665.08	40329.43233
665.278	40073.04402
665.476	40099.91563
665.675	39825.08326
665.873	39975.90789
666.071	40120.58734
666.269	39882.92717
666.467	40083.37904
666.665	39928.38174
666.863	39059.40408
667.061	39606.17644
667.259	39110.95703
667.457	39730.07171
667.655	39732.13695
667.853	39818.88618
668.051	39282.15609
668.249	39936.64675
668.447	39670.18439
668.645	39573.14392
668.843	39257.40027
669.041	39550.43557
669.239	39381.19354
669.437	39418.33846
669.635	39538.04971
669.833	39552.49991
670.031	39424.52959
670.229	39234.70868
670.426	39205.83017
670.624	39515.34326
670.822	39372.93954
671.02	40004.83959
671.218	39540.114
671.415	39453.42274
671.613	39393.57482
671.811	39044.97033
672.009	39139.8293
672.206	39393.57482
672.404	39044.97033
672.602	38954.25453
672.799	38983.11666
672.997	39397.70199
673.195	39509.1508
673.392	39535.98544
673.59	39405.95646
673.788	39620.62899
673.985	39445.16736
674.183	39961.44281
674.38	39436.91213
674.578	39453.42274
674.775	39354.36865
674.973	39106.83257
675.17	39059.40408
675.368	39292.47143
675.565	39725.94128
675.763	39626.82309
675.96	39189.32902
676.158	39156.32859
676.355	38970.74694
676.553	39663.98964
676.75	39096.5216
676.947	39496.76615
677.145	39358.49544
677.342	40008.97286
677.539	39577.27284
677.737	39438.97592
677.934	39133.64223
678.131	39507.08666
678.329	39426.59333
678.526	39344.05183
678.723	39643.34115
678.92	39688.76918
679.118	38981.05501
679.315	38962.50066
679.512	39067.65215
679.709	38931.57843
679.906	38863.55696
680.104	38711.06067
680.301	38307.39022
680.498	37973.9951
680.695	38052.17916
680.892	38472.11257
681.089	38237.40001
681.286	38781.12027
681.483	38356.80107
681.68	38692.51725
681.877	38072.7559
682.075	38976.93176
682.272	38459.75645
682.469	38906.84217
682.665	38439.16362
682.862	38476.23135
683.059	38039.83351
683.256	38031.60325
683.453	37873.19628
683.65	37801.20902
683.847	37671.65652
684.044	38029.5457
684.241	37953.42232
684.438	38336.21261
684.635	38062.46742
684.831	38884.16845
685.028	38562.73386
685.225	38340.33023
685.422	37396.20289
685.619	37461.97043
685.815	37258.52681
686.012	37712.7809
686.209	37774.47339
686.405	38173.594
686.602	37603.80813
686.799	37478.41352
686.996	37572.97074
687.192	37844.40019
687.389	37244.14464
687.586	37402.36827
687.782	37780.64303
687.979	38000.74093
688.175	37696.33078
688.372	38241.51681
688.568	37579.13808
688.765	37815.60568
688.962	37906.10803
689.158	37848.51382
689.355	37702.49951
689.551	36952.46802
689.748	36605.51298
689.944	37478.41352
690.14	37213.32692
690.337	37168.13055
690.533	37675.76882
690.73	37439.36197
690.926	37885.53794
691.123	36975.05761
691.319	37209.21802
691.515	37390.03758
691.712	37073.64024
691.908	36833.37305
692.104	36646.56284
692.301	36966.84312
692.497	36827.21359
692.693	36913.45161
692.889	36919.61193
693.086	36751.25188
693.282	36773.83413
693.478	37075.69422
693.674	37009.97045
693.87	36755.35769
694.067	37001.75548
694.263	37170.18485
694.459	37264.6907
694.655	37053.10086
694.851	36665.03614
695.047	36853.90503
695.243	36938.09327
695.439	36738.93463
695.635	36843.63895
695.831	36457.75481
696.027	36150.02914
696.224	36174.64217
696.42	36170.53994
696.615	36283.36006
696.811	36732.7761
697.007	36463.91074
697.203	36022.8753
697.399	35580.05731
697.595	35889.59268
697.791	36121.31501
697.987	35860.88878
698.183	36271.05152
698.379	36324.3901
698.575	36429.02787
698.77	36543.94304
698.966	36305.92628
699.162	35926.49931
699.358	36191.05134
699.554	36357.2159
699.749	36279.25719
699.945	36431.07976
700.141	36492.63917
700.337	36568.57032
700.532	36492.63917
700.728	36548.04752
700.924	36517.26453
701.119	36455.70284
701.315	36256.69184
701.511	36057.73783
701.706	35920.34808
701.902	35705.08652
702.097	35799.3841
702.293	35766.58363
702.489	35037.11734
702.684	35522.67342
702.88	35873.19032
703.075	35916.24729
703.271	35274.73909
703.466	34934.7136
703.662	35084.22693
703.857	35016.63568
704.053	34987.96212
704.248	35299.32435
704.443	35293.17797
704.639	35375.13338
704.834	35450.94926
705.03	35295.22675
705.225	35811.68464
705.42	36154.13125
705.616	35821.93524
705.811	35543.1672
706.006	35496.03228
706.202	35780.93366
706.397	35180.50209
706.592	35393.57444
706.787	36199.25607
706.983	35963.40777
707.178	36172.59106
707.373	35680.48904
707.568	35346.44808
707.763	34863.03771
707.959	35344.39916
708.154	35180.50209
708.349	34578.43478
708.544	35164.11409
708.739	34723.79715
708.934	34793.41491
709.129	34408.53047
709.324	34420.81178
709.519	34897.85103
709.714	34871.22896
709.909	35260.39801
710.104	34582.5292
710.299	35018.68382
710.494	34834.36888
710.689	34928.56973
710.884	35006.39502
711.079	35039.16553
711.274	34807.7486
711.469	35244.00851
711.664	34938.80953
711.859	34138.37686
712.054	34189.53724
712.249	34081.07995
712.443	33856.01208
712.638	34285.72512
712.833	33688.26118
713.028	34654.18435
713.223	33925.57398
713.417	34275.49196
713.612	33866.24152
713.807	34068.80241
714.002	34097.4502
714.196	34457.65657
714.391	34224.32764
714.586	34447.42178
714.78	34048.34014
714.975	33960.35644
715.17	33888.7466
715.364	34658.27909
715.559	34611.19065
715.754	33851.92032
715.948	33780.31683
716.143	33870.33332
716.337	34017.64741
716.532	33933.758
716.726	34034.01677
716.921	34072.89491
717.115	33737.3567
717.31	33872.37923
717.504	33972.63284
717.699	34132.23776
717.893	33680.07878
718.088	33704.62614
718.282	33917.39002
718.476	33498.03353
718.671	33303.74245
718.865	33242.3929
719.059	33350.77887
719.254	33361.00439
719.448	33205.5844
719.642	33469.39945
719.837	32661.73823
720.031	33273.06735
720.225	32528.87039
720.419	33361.00439
720.614	32958.17281
720.808	33127.88058
721.002	32833.45941
721.196	32851.85915
721.39	32810.97112
721.585	33111.52239
721.779	33416.22346
721.973	33005.19842
722.167	32770.08409
722.361	32870.25909
722.555	32575.88403
722.749	32342.87166
722.943	32324.47718
723.137	32220.24504
723.331	32193.67693
723.525	31946.40562
723.719	32716.93243
723.913	32718.9767
724.107	32481.85797
724.301	33054.27011
724.495	32988.84153
724.689	32461.41816
724.883	32340.82782
725.077	32629.03137
725.271	32391.92449
725.465	32671.95924
725.659	31905.53709
725.853	32056.75451
726.046	31821.75896
726.24	31674.64384
726.434	31306.89507
726.628	32079.23369
726.822	31643.99602
727.015	32175.28384
727.209	31362.054
727.403	32455.28626
727.596	32242.72601
727.79	32369.44179
727.984	32181.41485
728.177	31985.23144
728.371	32424.62707
728.565	32653.56146
728.758	32530.91444
728.952	32400.10008
729.146	32690.35722
729.339	32800.74926
729.533	32426.671
729.726	32945.90549
729.92	32183.45853
730.113	32463.46213
730.307	31932.10155
730.5	31874.88619
730.694	31666.47105
730.887	31219.05174
731.081	31384.52648
731.274	31791.1092
731.468	30992.3063
731.661	31633.78016
731.854	31174.10974
732.048	31180.23816
732.241	30969.83701
732.435	31382.48352
732.628	31601.08972
732.821	31276.25173
733.014	31605.176
733.208	31484.63358
733.401	31384.52648
733.594	31470.33233
733.788	31376.35465
733.981	31394.74132
734.174	31921.88441
734.367	31795.19581
734.56	31782.936
734.754	31584.74467
734.947	31903.49369
735.14	32062.88517
735.333	31684.85987
735.526	31576.57218
735.719	31190.4522
735.912	30877.91899
736.105	31043.37351
736.298	30908.55801
736.491	30914.68586
736.684	30802.34406
736.877	31233.35163
737.07	31662.38466
737.263	31449.9021
737.456	31174.10974
737.649	30963.70906
737.842	30975.96498
738.035	31280.33749
738.228	30830.93976
738.421	31214.96608
738.614	31351.83929
738.807	31180.23816
739	31020.90383
739.192	30892.21716
739.385	31257.86588
739.578	31564.31351
739.771	31846.27907
739.964	31500.97798
740.156	31895.32008
740.349	31327.32417
740.542	31840.14901
740.735	31750.2435
740.927	31688.94629
741.12	31139.38234
741.313	31394.74132
741.505	31429.47204
741.698	31172.06694
741.891	31259.90875
742.083	30859.53572
742.276	31355.92517
742.468	30690.00638
742.661	30706.34615
742.854	30495.97793
743.046	30761.49352
743.239	30730.85598
743.431	30765.57855
743.624	30214.1462
743.816	30673.66669
744.009	30953.49582
744.201	30945.32526
744.393	30747.19596
744.586	30835.02488
744.778	30712.47359
744.971	30495.97793
745.163	30694.09132
745.355	30389.77773
745.548	30471.46989
745.74	30522.52851
745.932	30802.34406
746.125	30567.46074
746.317	30665.49688
746.509	30257.03215
746.702	31239.48017
746.894	30863.62088
747.086	30287.66529
747.278	30283.58086
747.471	29983.38779
747.663	30003.80829
747.855	30216.18837
748.047	30030.35512
748.239	30485.76622
748.431	30600.13912
748.623	30696.13379
748.815	30175.34507
749.008	30267.24317
749.2	30130.41799
749.392	30436.75048
749.584	29842.48936
749.776	30289.70751
749.968	30130.41799
750.16	30146.75504
750.352	29660.75857
750.544	29370.82372
750.736	29564.79184
750.928	29372.86544
751.12	29613.79583
751.311	29456.57687
751.503	29205.44787
751.695	28864.50933
751.887	29140.11609
752.079	29291.19746
752.271	28788.97596
752.463	29223.82263
752.654	28929.83663
752.846	28774.68603
753.038	28899.21432
753.23	28907.38025
753.421	28690.98886
753.613	28833.88752
753.805	29315.69768
753.997	29415.74181
754.188	29170.74023
754.38	29115.61694
754.572	29152.36572
754.763	29656.67483
754.955	28705.27849
755.146	28801.22452
755.338	28664.4511
755.53	28617.50011
755.721	28446.03169
755.913	28450.11418
756.104	28813.47311
756.296	28870.63372
756.487	28407.2482
756.679	28635.87217
756.87	28131.69256
757.062	28307.22942
757.253	28109.24076
757.445	28301.10591
757.636	28354.17669
757.827	28374.58872
758.019	28403.16575
758.21	27847.99346
758.401	27511.25759
758.593	27774.52105
758.784	27599.00983
758.975	27635.744
759.167	27450.03644
759.358	28084.74804
759.549	27778.60281
759.74	27719.41774
759.932	27745.94885
760.123	27468.40267
760.314	27182.71758
760.505	27203.12281
760.696	27178.63655
760.888	27629.62161
761.079	27276.58273
761.27	27233.7309
761.461	27048.04644
761.652	26992.95543
761.843	26762.40052
762.034	26768.52121
762.225	27131.70509
762.416	27076.61255
762.607	27401.06034
762.798	27399.01969
762.989	27325.55696
763.18	27321.47574
763.371	26839.93021
763.562	27074.57211
763.753	26817.48719
763.944	26968.47086
764.135	26988.87465
764.326	27321.47574
764.517	27486.76899
764.708	26935.82508
764.899	26766.48098
765.089	26544.10486
765.28	26021.90193
765.471	26591.02675
765.662	25822.02624
765.853	25840.38144
766.043	25877.09227
766.234	26119.80653
766.425	26087.17121
766.615	26132.04488
766.806	26317.66754
766.997	26329.90688
767.187	25936.23877
767.378	26739.95812
767.569	26248.31238
767.759	26264.63107
767.95	26127.96542
768.141	26287.06944
768.331	25648.67924
768.522	25974.99076
768.712	26007.62451
768.903	26321.74731
769.093	25642.56137
769.284	25171.5401
769.474	25316.30098
769.665	25391.74402
769.855	25202.12247
770.046	25436.60339
770.236	25018.63571
770.426	25242.89973
770.617	25550.79538
770.807	25249.0164
770.998	25238.82197
771.188	25055.33161
771.378	25312.22306
771.569	25355.04164
771.759	25196.00596
771.949	24890.2059
772.139	25299.98935
772.33	24851.47492
772.52	24888.16741
772.71	25155.2297
772.9	25043.09956
773.09	25045.13823
773.281	25026.79029
773.471	24839.24426
773.661	24843.32113
773.851	24661.90939
774.041	24749.55537
774.231	24509.04946
774.421	24427.52999
774.611	23897.75766
774.802	23997.58508
774.992	24138.16984
775.182	23891.646
775.372	23637.01691
775.562	23842.75366
775.752	23975.17424
775.942	23500.555
776.131	24274.69221
776.321	23284.68847
776.511	23765.34421
776.701	24119.83195
776.891	24419.37827
777.081	24602.80188
777.271	24221.71194
777.461	24268.57901
777.651	24531.46803
777.84	23920.1673
778.03	23618.68541
778.22	23714.41927
778.41	23382.43497
778.599	23541.28846
778.789	23586.09669
778.979	23417.05527
779.169	23280.61586
779.358	23152.3352
779.548	23103.46977
779.738	23492.40845
779.927	23482.22534
780.117	23759.23312
780.307	23421.1283
780.496	22942.63456
780.686	23343.74277
780.875	22537.5871
781.065	23138.08259
781.254	22877.49209
781.444	23044.42659
781.633	23152.3352
781.823	23079.03777
782.012	23117.72199
782.202	22753.32393
782.391	22755.35937
782.581	22739.07594
782.77	22531.48192
782.96	23085.14573
783.149	22167.26509
783.338	22187.60929
783.528	22262.88608
783.717	22319.85566
783.906	22358.51522
784.096	21919.09602
784.285	22205.9194
784.474	22203.88492
784.663	21947.57157
784.853	22061.48124
785.042	22043.17353
785.231	21866.21484
785.42	21876.3841
785.61	21825.53878
785.799	21551.01602
785.988	21689.28525
786.177	21768.59489
786.366	21510.35207
786.555	21666.91694
786.744	21575.41515
786.933	21632.34866
787.122	21837.74144
787.312	22114.3719
787.501	21927.23182
787.69	22063.51545
787.879	22124.54347
788.068	21571.34859
788.257	21532.71705
788.445	20902.61772
788.634	21341.61368
788.823	21378.20521
789.012	21392.4356
789.201	21481.88825
789.39	21124.12434
789.579	21233.87953
789.768	21363.97502
789.957	21250.14056
790.145	21382.27102
790.334	21343.64651
790.523	21268.43453
790.712	21048.92856
790.9	20866.04334
791.089	20859.94774
791.278	21195.26061
791.467	20918.87343
791.655	20809.15253
791.844	20855.88403
792.033	20754.2966
792.221	20417.10092
792.41	20496.31125
792.599	20445.53466
792.787	20488.18682
792.976	20721.79081
793.164	20510.52916
793.353	20343.98935
793.541	20376.48271
793.73	20543.02801
793.918	20504.43574
794.107	20128.74801
794.295	20291.18993
794.484	20356.17423
794.672	20571.46539
794.861	20534.9032
795.049	20297.28203
795.238	20299.31273
795.426	20447.56567
795.614	20144.99099
795.803	20390.69889
795.991	20000.84394
796.179	20185.59962
796.368	19939.9431
796.556	19986.6334
796.744	19927.76339
796.932	20077.99043
797.121	19751.17456
797.309	20047.53714
797.497	19763.35208
797.685	19935.88318
797.874	19799.88555
798.062	19889.1953
798.25	19603.02681
798.438	19996.78376
798.626	19566.50065
798.814	19824.24195
799.002	19617.23179
799.19	19469.10417
799.378	19179.0004
799.566	19294.62605
799.755	19284.48292
799.943	19704.49546
800.131	19623.3197
800.318	19641.58367
800.506	19633.46631
800.694	19410.2651
800.882	19245.93994
801.07	19645.64237
801.258	19199.28463
801.446	19698.40705
801.634	19302.74063
801.822	19495.48143
802.01	19410.2651
802.197	19775.52975
802.385	19323.02738
802.573	19245.93994
802.761	19191.17089
802.949	19258.11124
803.136	19233.76878
803.324	19245.93994
803.512	19156.68821
803.699	18978.20844
803.887	18793.67699
804.075	19357.5158
804.262	19312.88396
804.45	19607.08535
804.638	19089.75461
804.825	19773.50013
805.013	19057.30355
805.201	19365.63089
805.388	19469.10417
805.576	19150.60315
805.763	19270.2827
805.951	19456.93028
806.138	19118.15014
806.326	19676.08319
806.513	19438.66973
806.701	18951.84477
806.888	19037.02216
807.075	19146.54647
807.263	19073.52895
807.45	19651.73046
807.638	19483.30722
807.825	19532.00496
808.012	19235.7973
808.2	19065.41621
808.387	18844.36914
808.574	19126.26329
808.761	19016.74118
808.949	19101.92402
809.136	19114.09358
809.323	19483.30722
809.51	19544.17978
809.698	19247.96848
809.885	19223.62626
810.072	19676.08319
810.259	19678.11261
810.446	19513.74303
810.633	19430.55404
810.82	19385.91892
811.008	19034.99405
811.195	19245.93994
811.382	18842.34141
811.569	19075.55714
811.756	18621.34215
811.943	19304.76929
812.13	18897.09163
812.317	19252.02557
812.504	19260.13981
812.691	19489.39431
812.878	18941.70508
813.064	19323.02738
813.251	18838.28595
813.438	19134.37651
813.625	18639.58803
813.812	19191.17089
813.999	18822.06429
814.186	18976.18044
814.372	18884.92466
814.559	19120.17842
814.746	18797.73227
814.933	19095.83929
815.12	19016.74118
815.306	18903.17517
815.493	18911.28661
815.68	19179.0004
815.866	18791.64936
816.053	19108.00878
816.24	18789.62173
816.426	18605.12386
816.613	18953.87272
816.799	19071.50076
816.986	18759.20774
817.173	19191.17089
817.359	19158.71657
817.546	19097.86753
817.732	18815.98123
817.919	18994.43258
818.105	18811.92588
818.292	18907.23088
818.478	18526.06325
818.665	18592.9603
818.851	18400.38919
819.037	18609.17841
819.224	18730.82216
819.41	18813.95355
819.597	18570.66082
819.783	18765.29047
819.969	18485.52162
820.156	18663.91635
820.342	18434.84674
820.528	18824.09198
820.714	18669.99852
820.901	19136.40483
821.087	18627.42407
821.273	18978.20844
821.459	18759.20774
821.646	19158.71657
821.832	18943.73301
822.018	18588.90582
822.204	18104.50414
822.39	18716.62966
822.576	18740.95978
822.762	18730.82216
822.948	18165.29601
823.134	18035.61062
823.32	17926.19998
823.507	18047.768
823.693	17978.87789
823.879	18118.68862
824.065	18382.1474
824.25	18007.2439
824.436	18270.67641
824.622	17940.38226
824.808	17863.39479
824.994	18037.63684
825.18	17989.00853
825.366	18327.42386
825.552	18286.88967
825.738	18416.60437
825.923	18234.19745
826.109	18112.60953
826.295	17727.66584
826.481	18179.48126
826.667	18282.83633
826.852	18086.26721
827.038	17881.62821
827.224	18063.97804
827.409	17960.64296
827.595	17727.66584
827.781	17369.16947
827.966	17790.4639
828.152	17648.6664
828.338	17525.11319
828.523	17411.69775
828.709	17300.31702
828.894	17188.94533
829.08	17689.1783
829.266	17413.72294
829.451	17391.44602
829.637	17004.69477
829.822	16972.30142
830.008	17296.26698
830.193	17209.19407
830.378	16717.2268
830.564	17126.17605
830.749	17043.16278
830.935	17132.25038
831.12	16812.36904
831.305	16980.3997
831.491	16826.53962
831.676	17073.53295
831.861	16784.02823
832.047	16966.22774
832.232	16836.66154
832.417	17071.50825
832.602	16650.42794
832.788	16937.88423
832.973	16808.32032
833.158	16907.51675
833.343	16573.51113
833.528	16654.47629
833.714	16913.5902
833.899	16962.17864
834.084	16650.42794
834.269	16790.10122
834.454	16306.35008
834.639	16887.27208
834.824	16371.11321
835.009	16383.25651
835.194	16176.8294
835.379	16954.08046
835.564	16727.34806
835.749	16842.73472
835.934	16352.89838
836.119	16478.38153
836.304	15956.25474
836.489	16031.12673
836.674	15899.59609
836.859	15729.62574
837.044	15998.74942
837.228	16023.03237
837.413	15626.43297
837.598	16267.89787
837.783	16081.71702
837.968	16018.98519
838.152	15772.1176
838.337	15842.93841
838.522	15711.41508
838.707	15757.9536
838.891	15509.07903
839.076	15541.45229
839.261	15482.77587
839.445	15553.59231
839.63	15221.77158
839.815	15521.21899
839.999	15496.9391
840.184	15798.42232
840.368	15768.07074
840.553	15824.72722
840.737	15849.00883
840.922	15826.75068
841.106	15780.21134
841.291	15818.65684
841.475	15231.88794
841.66	15405.89024
841.844	14972.90876
842.029	15254.14395
842.213	14849.48739
842.397	15011.35116
842.582	14829.25418
842.766	15284.49308
842.951	14974.93205
843.135	14817.11423
843.319	14495.39386
843.504	14630.96472
843.688	14511.58172
843.872	14717.9703
844.056	14987.07176
844.241	15114.53822
844.425	14829.25418
844.609	14902.09344
844.793	14875.79046
844.977	14948.62928
845.161	14885.907
845.346	15215.70176
845.53	14861.62728
845.714	14819.13756
845.898	14248.51706
846.082	14491.34689
846.266	14195.90061
846.45	14291.01402
846.634	14218.16157
846.818	14416.47679
847.002	14554.07445
847.186	14582.40264
847.37	14319.34489
847.554	14574.30889
847.738	14325.41574
847.922	14732.13383
848.106	14503.4878
848.29	14460.99438
848.473	14327.43936
848.657	14497.41735
848.841	14323.39213
849.025	14458.97087
849.209	13780.98589
849.392	13663.57437
849.576	13606.88906
849.76	13641.30546
849.944	13517.80666
850.127	13778.96164
850.311	13679.7697
850.495	14050.18617
850.678	14027.92322
850.862	14331.48658
851.046	14102.80659
851.229	13906.48364
851.413	13511.73261
851.596	13742.52465
851.78	13327.47001
851.964	13440.86619
852.147	13118.86738
852.331	13295.06875
852.514	13015.56059
852.698	12778.51244
852.881	12778.51244
853.065	12922.37081
853.248	13187.73172
853.431	13307.21935
853.615	13195.83307
853.798	13465.16377
853.982	13380.1198
854.165	13418.59292
854.348	13355.82024
854.532	13501.60912
854.715	13007.45756
854.898	13011.50908
855.081	12656.91988
855.265	13187.73172
855.448	12936.55257
855.631	12993.27706
855.814	12942.63039
855.997	12993.27706
856.181	12762.3013
856.364	12916.29284
856.547	12654.89316
856.73	12782.56517
856.913	12644.75946
857.096	12946.68224
857.279	12452.18967
857.462	12547.46816
857.645	12417.72369
857.828	12508.95304
858.011	12379.2006
858.194	12431.9158
858.377	12060.78041
858.56	12261.58844
858.743	12342.70278
858.926	12371.09017
859.109	12139.89535
859.292	12407.58627
859.475	12074.98138
859.658	12202.77341
859.841	11669.08206
860.023	11951.21709
860.206	11768.55863
860.389	11999.91475
860.572	11333.94721
860.755	11914.69079
860.937	11957.30455
861.12	11859.89634
861.303	11723.89829
861.486	12026.29074
861.668	11508.65579
861.851	11541.15186
862.034	11543.18278
862.216	11772.61845
862.399	11435.53073
862.581	11794.94685
862.764	11248.5977
862.947	11721.86818
863.129	11557.39899
863.312	11561.46068
863.494	11466.00101
863.677	11610.19807
863.859	11388.80537
864.042	11547.2446
864.224	11250.63004
864.406	11435.53073
864.589	11029.04292
864.771	11214.04633
864.954	10961.9315
865.136	11085.97653
865.318	10862.25857
865.501	11185.59001
865.683	10789.01184
865.865	11069.71066
866.048	10902.9447
866.23	10945.66023
866.412	10795.11631
866.594	11059.54413
866.777	10986.33705
866.959	11047.34394
867.141	10955.82985
867.323	11051.41072
867.505	10734.06678
867.687	10738.13708
867.869	10412.3572
868.052	10646.54362
868.234	10565.10638
868.416	10744.24245
868.598	10514.19795
868.78	10687.25485
868.962	10489.75909
869.144	10856.15525
869.326	10593.61167
869.508	10483.64909
869.69	10569.17871
869.872	10644.50793
870.054	10786.97699
870.236	10913.11552
870.417	10876.49924
870.599	10705.57332
870.781	10715.74983
870.963	10326.78583
871.145	10330.86118
871.327	10391.98516
871.508	10263.61098
871.69	10522.34383
871.872	10414.39433
872.054	10758.48788
872.235	10595.64767
872.417	10565.10638
872.599	10212.65407
872.78	10485.68577
872.962	10061.7711
873.144	10045.45483
873.325	10014.85936
873.507	9857.75139
873.689	10010.77972
873.87	10237.11445
874.052	9959.77938
874.233	10165.76616
874.415	10334.93649
874.596	10302.33258
874.778	10000.58037
874.959	9980.1806
875.141	9978.14054
875.322	9965.8999
875.503	9990.38067
875.685	10190.23033
875.866	10094.40093
876.048	10198.38461
876.229	10092.36167
876.41	10116.83185
876.592	10131.10519
876.773	10703.53799
876.954	10277.8774
877.136	10426.61684
877.317	10100.51862
877.498	10153.53334
877.679	10039.33599
877.86	10290.10523
878.042	10035.2567
878.223	10353.27469
878.404	10151.49448
878.585	10336.97412
878.766	10071.96831
878.947	10292.14315
879.128	9906.7294
879.309	10084.2045
879.49	9996.50053
879.672	9986.30068
879.853	10114.79274
880.034	10163.72739
880.215	10122.94908
880.396	10524.38027
880.576	10369.57441
880.757	10416.43145
880.938	9980.1806
881.119	10524.38027
881.3	10365.49956
881.481	10571.21486
881.662	10288.06729
881.843	10499.94217
882.023	10302.33258
882.204	10281.95339
882.385	10116.83185
882.566	10171.88239
882.747	10241.19099
882.927	10381.79866
883.108	10220.80775
883.289	10304.37042
883.469	10035.2567
883.65	9918.97258
883.831	9800.59956
884.011	10245.26747
884.192	10165.76616
884.373	10243.22923
884.553	10110.71449
884.734	10459.20794
884.914	9988.34068
885.095	10228.96121
885.275	10041.37562
885.456	10306.40825
885.636	10145.37784
885.817	10218.76935
885.997	10124.98812
886.178	10290.10523
886.358	10208.57715
886.538	10461.24477
886.719	10049.53398
886.899	10524.38027
887.08	10124.98812
887.26	10465.3184
887.44	10391.98516
887.621	10469.39198
887.801	10339.01173
887.981	10377.72396
888.161	10184.11447
888.342	10367.537
888.522	10102.55783
888.702	10457.17109
888.882	10277.8774
889.062	10634.32929
889.242	10228.96121
889.423	10495.86898
889.603	10230.99954
889.783	10603.79154
889.963	10220.80775
890.143	10400.13413
890.323	10212.65407
890.503	10457.17109
890.683	10210.61562
890.863	10153.53334
891.043	10204.50017
891.223	10110.71449
891.403	10173.92111
891.583	10440.87585
891.763	10310.48387
891.943	10269.72524
892.122	9845.50555
892.302	9931.21523
892.482	10002.62027
892.662	10186.1531
892.842	10104.59701
893.022	9994.46059
893.201	9674.00696
893.381	9857.75139
893.561	9751.60291
893.741	9763.85289
893.92	9761.81126
894.1	10106.63619
894.28	9729.1432
894.459	10033.21703
894.639	9918.97258
894.819	9914.89158
894.998	9855.71045
895.178	10167.80492
895.357	9890.40434
895.537	10383.83598
895.716	10102.55783
895.896	10294.18106
896.075	10171.88239
896.255	10025.05821
896.434	9731.18506
896.614	10155.57217
896.793	9802.6409
896.973	9980.1806
897.152	9912.85106
897.331	9937.33636
897.511	9853.6695
897.69	9802.6409
897.87	9669.92235
898.049	9598.4316
898.228	9477.87501
898.407	9757.72797
898.587	9624.98753
898.766	9759.76962
898.945	9214.08862
899.124	9420.64224
899.304	9218.18044
899.483	9531.00846
899.662	9273.41344
899.841	9465.61191
900.02	9136.33112
900.199	9351.12817
900.378	9175.21294
900.557	9101.53689
900.737	9142.47077
900.916	8947.97301
901.095	8685.6592
901.274	8894.71442
901.453	8470.25435
901.632	8607.72705
901.811	8484.62115
901.989	8933.63534
902.168	8371.7138
902.347	9044.21786
902.526	8724.61525
902.705	8820.95179
902.884	8849.64002
903.063	9242.72995
903.242	9072.87907
903.42	9140.42424
903.599	8954.11746
903.778	9285.68578
903.957	8765.61444
904.135	9027.83849
904.314	8585.16272
904.493	8839.39463
904.672	8297.77913
904.85	8866.03172
905.029	8579.00842
905.207	8605.67585
905.386	8384.0338
905.565	8525.66401
905.743	8295.72503
905.922	8365.55354
906.1	8176.55341
906.279	8381.98052
906.457	8092.27106
906.636	8535.92354
906.814	8316.26517
906.993	8125.16574
907.171	8217.65458
907.35	8232.03812
907.528	7804.22044
907.707	8199.16004
907.885	8240.25685
908.063	8186.82945
908.242	8168.33222
908.42	8094.32713
908.598	7789.80729
908.777	8174.49814
908.955	7962.69797
909.133	8108.71905
909.311	7771.2746
909.49	7649.74038
909.668	7392.00753
909.846	7760.97793
910.024	7499.26523
910.202	7738.32341
910.38	7664.16354
910.559	7524.00871
910.737	7319.78174
910.915	7484.8301
911.093	7379.62787
911.271	7781.57075
911.449	7528.13232
911.627	7507.5134
911.805	7210.36009
911.983	7226.88054
912.161	7259.91718
912.339	7526.07053
912.517	7315.65375
912.695	7441.51836
912.872	7057.47858
913.05	7177.31495
913.228	6921.02134
913.406	6999.59961
913.584	6896.20037
913.762	6987.19468
913.939	6788.60503
914.117	6780.32592
914.295	6674.73508
914.473	6825.85654
914.65	6716.15036
914.828	6970.65351
915.006	6627.09615
915.184	6945.83905
915.361	6616.73824
915.539	6978.92428
915.716	6695.44387
915.894	6749.27597
916.072	6548.36161
916.249	6523.49114
916.427	6614.66659
916.604	6627.09615
916.782	6343.0802
916.959	6685.08976
917.137	6361.75157
917.314	6720.29138
917.492	6392.86633
917.669	6616.73824
917.847	6488.25226
918.024	6498.61733
918.201	6332.70639
918.379	6519.34574
918.556	6204.02266
918.733	6291.20534
918.911	6108.48939
919.088	6066.93768
919.265	5906.87564
919.442	6091.86984
919.62	5700.8761
919.797	6064.85985
919.974	5927.67081
920.151	6021.21992
920.328	5727.93973
920.506	6006.67097
920.683	5875.67845
920.86	5838.23483
921.037	5427.93549
921.214	5534.24288
921.391	5425.85042
921.568	5594.66486
921.745	5496.72961
921.922	5669.64387
922.099	5302.78975
922.276	5609.2465
922.453	5317.39443
922.63	5696.71211
922.807	5359.11578
922.984	5444.61521
923.161	5150.41549
923.338	5258.96881
923.514	5075.22633
923.691	5277.75047
923.868	5213.0501
924.045	5271.49013
924.222	5027.17308
924.399	5025.08353
924.575	4818.10432
924.752	5125.35578
924.929	4997.91729
925.105	4740.69099
925.282	4589.96026
925.459	4868.30173
925.635	4905.94114
925.812	5083.58217
925.989	4757.43164
926.165	5000.00714
926.342	4598.33724
926.518	4598.33724
926.695	4455.88034
926.871	4577.39412
927.048	4195.84601
927.224	4355.26131
927.401	4078.30367
927.577	4221.02505
927.754	4355.26131
927.93	4162.2692
928.107	4107.69541
928.283	4206.33765
928.459	4084.60225
928.636	4122.38975
928.812	3912.37461
928.988	4015.30769
929.165	3910.27343
929.341	4034.20844
929.517	3725.29166
929.693	3937.58722
929.87	3651.67742
930.046	3830.4137
930.222	3481.22469
930.398	3632.74428
930.574	3556.99647
930.751	3636.95177
930.927	3491.74996
931.103	3775.75634
931.279	3439.11909
931.455	3817.80164
931.631	3325.3985
931.807	3702.15828
931.983	3445.43539
932.159	3257.98469
932.335	3144.185
932.511	3527.53249
932.687	3279.05338
932.863	3569.62278
933.039	3152.61625
933.215	3211.62766
933.391	3169.47796
933.566	3224.27129
933.742	2937.54106
933.918	3338.03664
934.094	2891.13167
934.27	3026.12088
934.445	2787.74049
934.621	3131.53765
934.797	2475.26625
934.973	2648.42752
935.148	2519.61992
935.324	2739.19853
935.5	2519.61992
935.675	2494.27557
935.851	2249.20163
936.027	2523.84382
936.202	2048.4031
936.378	2118.16225
936.553	1942.6932
936.729	2004.00691
936.904	1870.80195
937.08	1923.66379
937.255	1492.24179
937.431	1836.96869
937.606	1420.33006
937.782	1652.98196
937.957	1441.48057
938.133	1473.20635
938.308	1289.19893
938.483	1318.8087
938.659	1189.79832
938.834	1327.2687
939.009	1060.80129
939.185	1223.6361
939.36	929.71042
939.535	1031.19802
939.71	984.68097
939.886	1039.65598
940.061	881.08681
940.236	895.88486
940.411	798.64821
940.586	923.36798
940.761	779.6259
940.937	917.0256
941.112	813.44387
941.287	802.8755
941.462	716.2241
941.637	733.13033
941.812	625.3655
941.987	747.92384
942.162	667.62264
942.337	676.07463
942.512	633.81654
942.687	621.14005
942.862	561.98919
943.037	644.38061
943.212	591.56335
943.386	591.56335
943.561	507.07284
943.736	583.11332
943.911	481.73009
944.086	557.76452
944.26	583.11332
944.435	507.07284
944.61	464.83611
944.785	504.96086
944.959	496.5131
945.134	498.62502
945.309	464.83611
945.483	519.745
945.658	422.60547
945.833	621.14005
946.007	551.42762
946.182	431.05109
946.357	549.31535
946.531	542.97862
946.706	498.62502
946.88	625.3655
947.055	466.9478
947.229	604.23877
947.404	566.21391
947.578	657.0579
947.752	502.8489
947.927	589.45082
948.101	604.23877
948.276	583.11332
948.45	490.17744
948.624	684.52681
948.799	441.60848
948.973	595.78844
949.147	498.62502
949.321	659.17083
949.496	500.73695
949.67	534.52983
949.844	593.67589
950.018	585.22581
950.193	511.29683
950.367	521.85708
950.541	490.17744
950.715	553.53991
950.889	621.14005
951.063	612.68931
951.237	561.98919
951.411	661.28376
951.585	720.4506
951.759	608.46402
951.933	646.49347
952.107	663.39671
952.281	553.53991
952.455	726.79042
952.629	561.98919
952.803	608.46402
952.977	585.22581
953.151	642.26777
953.325	551.42762
953.499	697.20543
953.672	602.12617
953.846	684.52681
954.02	502.8489
954.194	678.18766
954.368	462.72443
954.541	676.07463
954.715	570.43868
954.889	633.81654
955.062	532.41767
955.236	684.52681
955.41	688.75297
955.583	711.99765
955.757	574.66351
955.93	688.75297
956.104	498.62502
956.278	684.52681
956.451	557.76452
956.625	585.22581
956.798	557.76452
956.972	684.52681
957.145	633.81654
957.319	718.33734
957.492	612.68931
957.665	684.52681
957.839	540.8664
958.012	576.77594
958.185	574.66351
958.359	616.91466
958.532	515.52089
958.705	684.52681
958.879	676.07463
959.052	644.38061
959.225	542.97862
959.398	718.33734
959.572	570.43868
959.745	576.77594
959.918	464.83611
960.091	595.78844
960.264	566.21391
960.438	578.88839
960.611	540.8664
960.784	500.73695
960.957	515.52089
961.13	536.64201
961.303	538.7542
961.476	650.7192
961.649	504.96086
961.822	642.26777
961.995	504.96086
962.168	644.38061
962.341	479.61829
962.514	551.42762
962.686	462.72443
962.859	540.8664
963.032	477.5065
963.205	519.745
963.378	460.61277
963.551	566.21391
963.723	433.16254
963.896	464.83611
964.069	380.38121
964.242	616.91466
964.414	483.8419
964.587	498.62502
964.76	327.61034
964.932	458.50112
965.105	361.38246
965.278	523.96917
965.45	321.27857
965.623	371.93715
965.795	426.82825
965.968	399.38131
966.14	365.60428
966.313	454.27787
966.485	456.38949
966.658	431.05109
966.83	336.05295
967.003	460.61277
967.175	464.83611
967.348	498.62502
967.52	397.27012
967.692	464.83611
967.865	500.73695
968.037	479.61829
968.209	399.38131
968.382	439.49697
968.554	450.05468
968.726	447.94311
968.898	441.60848
969.071	439.49697
969.243	450.05468
969.415	439.49697
969.587	355.04985
969.759	424.71685
969.932	308.61551
970.104	382.49226
970.276	329.72097
970.448	384.60334
970.62	264.29997
970.792	348.71739
970.964	291.73244
971.136	371.93715
971.308	333.94227
971.48	247.42003
971.652	325.49973
971.824	371.93715
971.996	285.40159
972.168	314.94696
972.339	289.62213
972.511	308.61551
972.683	287.51185
972.855	298.06345
973.027	228.43158
973.199	352.93901
973.37	283.29134
973.542	325.49973
973.714	289.62213
973.886	369.82618
974.057	219.99277
974.229	266.41005
974.401	312.83645
974.572	317.05747
974.744	272.74039
974.915	272.74039
975.087	241.09037
975.259	304.39463
975.43	293.84276
975.602	329.72097
975.773	236.87069
975.945	236.87069
976.116	312.83645
976.288	325.49973
976.459	268.52014
976.63	319.16801
976.802	228.43158
976.973	338.16365
977.145	238.98052
977.316	219.99277
977.487	188.35008
977.659	255.85985
977.83	281.18111
978.001	306.50506
978.172	249.52996
978.344	205.22562
978.515	182.02209
978.686	228.43158
978.857	150.38492
979.028	236.87069
979.2	160.93012
979.371	169.36666
979.542	131.40488
979.713	253.74986
979.884	207.33515
980.055	295.95309
980.226	213.66387
980.397	135.62252
980.568	156.71198
980.739	222.10244
980.91	135.62252
981.081	211.55428
981.252	192.56884
981.423	198.89714
981.594	154.60294
981.765	234.76089
981.936	188.35008
982.106	154.60294
982.277	222.10244
982.448	165.14835
982.619	236.87069
982.79	194.67826
982.96	186.24073
983.131	198.89714
983.302	135.62252
983.472	213.66387
983.643	118.75249
983.814	196.78769
983.984	135.62252
984.155	108.20943
984.326	93.45007
984.496	211.55428
984.667	91.34168
984.837	127.18734
985.008	112.42659
985.178	186.24073
985.349	150.38492
985.519	144.05805
985.69	70.25899
985.86	89.23331
986.031	110.318
986.201	70.25899
986.371	61.82655
986.542	192.56884
986.712	144.05805
986.882	139.84024
987.053	127.18734
987.223	169.36666
987.393	101.88386
987.563	85.01664
987.734	137.73137
987.904	89.23331
988.074	42.8549
988.244	68.15085
988.414	148.27594
988.585	85.01664
988.755	114.5352
988.925	63.93463
989.095	122.96987
989.265	182.02209
989.435	4.91728
989.605	34.42366
989.775	177.80353
989.945	163.03922
990.115	87.12496
990.285	127.18734
990.455	127.18734
990.625	47.07066
990.795	66.04272
990.965	85.01664
991.134	21.7775
991.304	89.23331
991.474	110.318
991.644	38.63923
991.814	53.39447
991.984	63.93463
992.153	59.7185
992.323	34.42366
992.493	68.15085
992.662	49.17857
992.832	95.55848
993.002	118.75249
993.171	42.8549
993.341	118.75249
993.511	44.96277
993.68	87.12496
993.85	-14.04863
994.019	38.63923
994.189	70.25899
994.358	93.45007
994.528	17.5623
994.697	59.7185
994.867	2.80986
995.036	122.96987
995.206	53.39447
995.375	89.23331
995.544	125.07859
995.714	51.28651
995.883	103.99236
996.052	63.93463
996.222	47.07066
996.391	85.01664
996.56	118.75249
996.73	82.90833
996.899	15.45473
997.068	44.96277
997.237	0.70246
997.406	28.10047
997.576	127.18734
997.745	32.3159
997.914	120.86117
998.083	95.55848
998.252	103.99236
998.421	30.20817
998.59	36.53143
998.759	106.10089
998.928	13.34719
999.097	63.93463
999.266	25.99279
999.435	59.7185
999.604	70.25899
999.773	0.70246
999.942	95.55848
1000.111	85.01664
1000.28	93.45007
1000.448	59.7185
1000.617	51.28651
1000.786	36.53143
1000.955	9.13219
1001.124	-33.01256
1001.292	17.5623
1001.461	9.13219
1001.63	74.47535
1001.798	114.5352
1001.967	19.66988
1002.136	55.50246
1002.304	51.28651
1002.473	36.53143
1002.642	68.15085
1002.81	2.80986
1002.979	78.6918
1003.147	23.88513
1003.316	38.63923
1003.484	36.53143
1003.653	57.61047
1003.821	44.96277
1003.99	30.20817
1004.158	4.91728
1004.327	7.02472
1004.495	76.58356
1004.663	-49.86771
1004.832	85.01664
1005	17.5623
1005.168	30.20817
1005.337	25.99279
1005.505	11.23968
1005.673	59.7185
1005.842	51.28651
1006.01	61.82655
1006.178	36.53143
1006.346	32.3159
1006.514	63.93463
1006.683	34.42366
1006.851	87.12496
1007.019	34.42366
1007.187	42.8549
1007.355	-33.01256
1007.523	-89.89218
1007.691	25.99279
1007.859	42.8549
1008.027	0.70246
1008.195	-7.72688
1008.363	89.23331
1008.531	-64.61464
1008.699	36.53143
1008.867	28.10047
1009.035	-33.01256
1009.203	87.12496
1009.37	28.10047
1009.538	11.23968
1009.706	25.99279
1009.874	103.99236
1010.042	61.82655
1010.209	-28.79853
1010.377	80.80005
1010.545	-45.65407
1010.713	-3.51226
1010.88	44.96277
1011.048	-16.15583
1011.216	25.99279
1011.383	44.96277
1011.551	55.50246
1011.718	-49.86771
1011.886	-26.69148
1012.054	34.42366
1012.221	-102.52955
1012.389	87.12496
1012.556	-47.7609
1012.724	28.10047
1012.891	-5.61958
1013.058	63.93463
1013.226	19.66988
1013.393	11.23968
1013.561	66.04272
1013.728	15.45473
1013.895	7.02472
1014.063	15.45473
1014.23	61.82655
1014.397	61.82655
1014.565	25.99279
1014.732	49.17857
1014.899	55.50246
1015.066	-14.04863
1015.233	-37.2265
1015.401	59.7185
1015.568	-24.5844
1015.735	21.7775
1015.902	-54.08124
1016.069	-33.01256
1016.236	-62.50801
1016.403	59.7185
1016.57	-7.72688
1016.737	7.02472
1016.904	63.93463
1017.071	-18.26301
1017.238	59.7185
1017.405	59.7185
1017.572	36.53143
1017.739	25.99279
1017.906	28.10047
1018.073	36.53143
1018.24	-3.51226
1018.407	15.45473
1018.573	-28.79853
1018.74	9.13219
1018.907	36.53143
1019.074	-16.15583
1019.241	17.5623
1019.407	0.70246
1019.574	17.5623
1019.741	9.13219
1019.907	-11.94141
1020.074	-20.37016
1020.241	53.39447
1020.407	89.23331
1020.574	-37.2265
1020.74	19.66988
1020.907	-41.44034
1021.073	74.47535
1021.24	72.36716
1021.406	-7.72688
1021.573	-49.86771
1021.739	21.7775
1021.906	-45.65407
1022.072	61.82655
1022.239	-41.44034
1022.405	25.99279
1022.571	-35.11954
1022.738	0.70246
1022.904	76.58356
1023.07	4.91728
1023.237	40.74705
1023.403	21.7775
1023.569	15.45473
1023.735	36.53143
1023.902	-41.44034
1024.068	42.8549
1024.234	30.20817
1024.4	30.20817
1024.566	11.23968
1024.732	17.5623
1024.898	25.99279
1025.065	93.45007
1025.231	-16.15583
1025.397	-3.51226
1025.563	-16.15583
1025.729	17.5623
1025.895	21.7775
1026.061	4.91728
1026.227	-24.5844
1026.392	4.91728
1026.558	0.70246
1026.724	4.91728
1026.89	-37.2265
1027.056	25.99279
1027.222	13.34719
1027.388	0.70246
1027.553	34.42366
1027.719	21.7775
1027.885	17.5623
1028.051	-56.18797
1028.216	-22.47729
1028.382	-3.51226
1028.548	23.88513
1028.713	-60.40135
1028.879	51.28651
1029.045	-41.44034
1029.21	11.23968
1029.376	-54.08124
1029.541	42.8549
1029.707	0.70246
1029.873	0.70246
1030.038	11.23968
1030.204	-35.11954
1030.369	25.99279
1030.534	-24.5844
1030.7	11.23968
1030.865	11.23968
1031.031	85.01664
1031.196	-41.44034
1031.361	38.63923
1031.527	25.99279
1031.692	-5.61958
1031.857	28.10047
1032.023	-3.51226
1032.188	-20.37016
1032.353	-16.15583
1032.518	59.7185
1032.684	-28.79853
1032.849	2.80986
1033.014	68.15085
1033.179	-16.15583
1033.344	-5.61958
1033.509	-41.44034
1033.674	34.42366
1033.839	-33.01256
1034.004	9.13219
1034.17	2.80986
1034.335	66.04272
1034.5	59.7185
1034.664	-14.04863
1034.829	-39.33343
1034.994	-14.04863
1035.159	15.45473
1035.324	44.96277
1035.489	72.36716
1035.654	-14.04863
1035.819	-3.51226
1035.984	-7.72688
1036.148	9.13219
1036.313	-22.47729
1036.478	-16.15583
1036.643	11.23968
1036.807	0.70246
1036.972	-58.29468
1037.137	-30.90556
1037.301	34.42366
1037.466	38.63923
1037.631	42.8549
1037.795	-47.7609
1037.96	51.28651
1038.124	93.45007
1038.289	-20.37016
1038.454	63.93463
1038.618	-7.72688
1038.783	72.36716
1038.947	-16.15583
1039.111	34.42366
1039.276	-11.94141
1039.44	-16.15583
1039.605	-30.90556
1039.769	59.7185
1039.933	-20.37016
1040.098	17.5623
1040.262	25.99279
1040.426	11.23968
1040.591	-56.18797
1040.755	9.13219
1040.919	32.3159
1041.083	38.63923
1041.248	-58.29468
1041.412	0.70246
1041.576	9.13219
1041.74	34.42366
1041.904	17.5623
1042.068	61.82655
1042.232	-35.11954
1042.397	-3.51226
1042.561	70.25899
1042.725	49.17857
1042.889	34.42366
1043.053	28.10047
1043.217	-11.94141
1043.381	-41.44034
1043.544	-30.90556
1043.708	-3.51226
1043.872	-20.37016
1044.036	17.5623
1044.2	34.42366
1044.364	-64.61464
1044.528	36.53143
1044.691	51.28651
1044.855	-47.7609
1045.019	59.7185
1045.183	-54.08124
1045.346	-7.72688
1045.51	-7.72688
1045.674	-18.26301
1045.837	-7.72688
1046.001	34.42366
1046.165	-24.5844
1046.328	0.70246
1046.492	7.02472
1046.655	17.5623
1046.819	-16.15583
1046.983	-62.50801
1047.146	-30.90556
1047.31	72.36716
1047.473	-56.18797
1047.636	-7.72688
1047.8	-7.72688
1047.963	-5.61958
1048.127	-7.72688
1048.29	-3.51226
