Data from mixed_try1_USB4F045381__3__00107.txt Node

Date: Thu Apr 03 19:58:50 EDT 2025
User: mmckonesweet
Spectrometer: USB4F04538
Trigger mode: 4
Integration Time (sec): 2.700000E-3
Scans to average: 1
Electric dark correction enabled: true
Nonlinearity correction enabled: true
Boxcar width: 0
XAxis mode: Wavelengths
Number of Pixels in Spectrum: 3648
>>>>>Begin Spectral Data<<<<<
345.52	8.25407
345.736	8.25407
345.952	8.25407
346.168	-23.35526
346.384	-48.63874
346.6	1.93177
346.816	-6.49763
347.032	-42.31821
347.248	6.14661
347.464	10.36155
347.68	8.25407
347.896	-17.03383
348.112	63.05626
348.328	-57.06577
348.544	27.22227
348.76	-6.49763
348.975	12.46906
349.191	-4.39031
349.407	-38.10439
349.623	10.36155
349.839	14.57659
350.055	-38.10439
350.27	-48.63874
350.486	18.79172
350.702	-50.74553
350.918	-25.46235
351.133	4.03918
351.349	18.79172
351.565	20.89932
351.781	39.86879
351.996	-4.39031
352.212	-31.78348
352.428	-10.71218
352.644	12.46906
352.859	-31.78348
353.075	-19.141
353.291	-48.63874
353.506	-23.35526
353.722	-59.17246
353.938	-33.89048
354.153	37.76098
354.369	-29.67646
354.584	-84.4508
354.8	-2.28298
355.016	60.94819
355.231	50.4082
355.447	-50.74553
355.662	-0.17561
355.878	20.89932
356.093	-57.06577
356.309	33.54542
356.524	-42.31821
356.74	-38.10439
356.955	27.22227
357.171	4.03918
357.386	-76.0251
357.602	16.68414
357.817	-101.30096
358.033	50.4082
358.248	33.54542
358.464	-63.38577
358.679	-59.17246
358.895	-29.67646
359.11	6.14661
359.325	79.92161
359.541	-8.60492
359.756	-38.10439
359.972	25.11459
360.187	12.46906
360.402	-29.67646
360.618	41.97663
360.833	-84.4508
361.048	6.14661
361.264	-0.17561
361.479	-44.42508
361.694	-17.03383
361.909	12.46906
362.125	-12.81942
362.34	6.14661
362.555	-57.06577
362.77	41.97663
362.986	-76.0251
363.201	-50.74553
363.416	1.93177
363.631	20.89932
363.847	20.89932
364.062	37.76098
364.277	-84.4508
364.492	58.84015
364.707	46.19237
364.922	8.25407
365.138	-21.24814
365.353	41.97663
365.568	-52.8523
365.783	-40.21131
365.998	-57.06577
366.213	-40.21131
366.428	-71.81209
366.643	-10.71218
366.858	-21.24814
367.073	-48.63874
367.288	-23.35526
367.503	16.68414
367.718	-17.03383
367.933	16.68414
368.148	-54.95905
368.363	-21.24814
368.578	-63.38577
368.793	18.79172
369.008	-33.89048
369.223	35.65319
369.438	-2.28298
369.653	-33.89048
369.868	8.25407
370.083	6.14661
370.298	-8.60492
370.513	-17.03383
370.728	-29.67646
370.943	25.11459
371.157	35.65319
371.372	52.51615
371.587	1.93177
371.802	-21.24814
372.017	-8.60492
372.232	-42.31821
372.446	-33.89048
372.661	-12.81942
372.876	27.22227
373.091	-21.24814
373.306	-25.46235
373.52	-25.46235
373.735	12.46906
373.95	14.57659
374.165	-17.03383
374.379	29.32996
374.594	8.25407
374.809	-12.81942
375.023	54.62413
375.238	33.54542
375.453	-8.60492
375.667	-65.49239
375.882	-76.0251
376.097	-17.03383
376.311	-21.24814
376.526	12.46906
376.741	-14.92664
376.955	-31.78348
377.17	-10.71218
377.384	-67.59898
377.599	18.79172
377.813	-61.27913
378.028	-29.67646
378.242	25.11459
378.457	10.36155
378.672	25.11459
378.886	12.46906
379.101	69.38059
379.315	-21.24814
379.53	27.22227
379.744	-31.78348
379.958	-44.42508
380.173	25.11459
380.387	-6.49763
380.602	-33.89048
380.816	-50.74553
381.031	-33.89048
381.245	-19.141
381.459	-29.67646
381.674	-42.31821
381.888	75.70514
382.103	-17.03383
382.317	16.68414
382.531	-99.19478
382.746	-23.35526
382.96	14.57659
383.174	8.25407
383.388	25.11459
383.603	-0.17561
383.817	-17.03383
384.031	-8.60492
384.246	12.46906
384.46	39.86879
384.674	79.92161
384.888	-88.66349
385.103	41.97663
385.317	60.94819
385.531	46.19237
385.745	-52.8523
385.959	33.54542
386.174	-25.46235
386.388	16.68414
386.602	-2.28298
386.816	12.46906
387.03	-4.39031
387.244	8.25407
387.458	-40.21131
387.672	-12.81942
387.887	50.4082
388.101	25.11459
388.315	35.65319
388.529	-8.60492
388.743	25.11459
388.957	-82.34441
389.171	29.32996
389.385	12.46906
389.599	-10.71218
389.813	67.27246
390.027	8.25407
390.241	-40.21131
390.455	14.57659
390.669	-12.81942
390.883	71.48875
391.097	44.08449
391.311	58.84015
391.525	41.97663
391.738	-50.74553
391.952	52.51615
392.166	29.32996
392.38	-17.03383
392.594	8.25407
392.808	-0.17561
393.022	-42.31821
393.236	117.87389
393.449	-25.46235
393.663	25.11459
393.877	-2.28298
394.091	10.36155
394.305	-19.141
394.518	-17.03383
394.732	8.25407
394.946	33.54542
395.16	4.03918
395.373	25.11459
395.587	25.11459
395.801	-57.06577
396.015	-4.39031
396.228	39.86879
396.442	-23.35526
396.656	33.54542
396.869	31.43768
397.083	-17.03383
397.297	-17.03383
397.51	6.14661
397.724	-33.89048
397.938	-46.53192
398.151	-10.71218
398.365	27.22227
398.578	56.73213
398.792	-10.71218
399.005	-8.60492
399.219	29.32996
399.433	8.25407
399.646	10.36155
399.86	-21.24814
400.073	63.05626
400.287	-6.49763
400.5	58.84015
400.714	-17.03383
400.927	46.19237
401.141	46.19237
401.354	16.68414
401.567	29.32996
401.781	52.51615
401.994	-46.53192
402.208	50.4082
402.421	37.76098
402.635	8.25407
402.848	-23.35526
403.061	-6.49763
403.275	14.57659
403.488	37.76098
403.701	58.84015
403.915	-67.59898
404.128	88.35483
404.341	75.70514
404.555	-17.03383
404.768	14.57659
404.981	67.27246
405.195	58.84015
405.408	16.68414
405.621	-21.24814
405.834	92.57157
406.048	-10.71218
406.261	41.97663
406.474	54.62413
406.687	69.38059
406.9	50.4082
407.114	41.97663
407.327	-29.67646
407.54	20.89932
407.753	-2.28298
407.966	-23.35526
408.179	79.92161
408.392	31.43768
408.605	-8.60492
408.819	-8.60492
409.032	31.43768
409.245	-14.92664
409.458	82.02988
409.671	-6.49763
409.884	63.05626
410.097	50.4082
410.31	29.32996
410.523	-25.46235
410.736	-6.49763
410.949	75.70514
411.162	122.09124
411.375	23.00695
411.588	109.43943
411.801	84.13817
412.014	58.84015
412.227	33.54542
412.44	8.25407
412.653	20.89932
412.865	60.94819
413.078	25.11459
413.291	8.25407
413.504	101.00532
413.717	44.08449
413.93	37.76098
414.143	67.27246
414.356	18.79172
414.568	-0.17561
414.781	52.51615
414.994	50.4082
415.207	71.48875
415.42	1.93177
415.632	18.79172
415.845	-23.35526
416.058	75.70514
416.271	52.51615
416.483	39.86879
416.696	52.51615
416.909	35.65319
417.121	46.19237
417.334	56.73213
417.547	128.41744
417.759	50.4082
417.972	77.81336
418.185	8.25407
418.397	1.93177
418.61	37.76098
418.823	16.68414
419.035	46.19237
419.248	54.62413
419.46	94.67998
419.673	84.13817
419.885	20.89932
420.098	-6.49763
420.311	18.79172
420.523	157.94226
420.736	71.48875
420.948	54.62413
421.161	-54.95905
421.373	111.54801
421.586	79.92161
421.798	29.32996
422.01	39.86879
422.223	50.4082
422.435	37.76098
422.648	122.09124
422.86	71.48875
423.073	20.89932
423.285	111.54801
423.497	50.4082
423.71	27.22227
423.922	119.98255
424.134	122.09124
424.347	119.98255
424.559	12.46906
424.771	69.38059
424.984	50.4082
425.196	69.38059
425.408	111.54801
425.621	134.74384
425.833	25.11459
426.045	58.84015
426.257	136.85268
426.47	44.08449
426.682	130.52622
426.894	88.35483
427.106	143.17933
427.318	86.24649
427.531	134.74384
427.743	92.57157
427.955	111.54801
428.167	164.26954
428.379	111.54801
428.591	103.11382
428.804	149.50617
429.016	111.54801
429.228	75.70514
429.44	41.97663
429.652	90.46319
429.864	147.39721
430.076	202.23715
430.288	126.30869
430.5	33.54542
430.712	130.52622
430.924	168.48784
431.136	84.13817
431.348	122.09124
431.56	172.70621
431.772	174.81543
431.984	162.16043
432.196	172.70621
432.408	187.47118
432.62	128.41744
432.832	214.89448
433.044	138.96154
433.256	160.05133
433.468	153.72418
433.679	189.58055
433.891	147.39721
434.103	164.26954
434.315	223.33309
434.527	221.22341
434.739	183.25252
434.95	219.11374
435.162	240.21127
435.374	219.11374
435.586	246.5409
435.798	193.79933
436.009	265.53084
436.221	204.34665
436.433	189.58055
436.645	210.67529
436.856	179.03394
437.068	160.05133
437.28	295.07378
437.491	244.431
437.703	181.14322
437.915	307.73615
438.126	320.39917
438.338	204.34665
438.55	309.84661
438.761	328.84154
438.973	309.84661
439.184	278.19166
439.396	299.2945
439.608	221.22341
439.819	337.28419
440.031	269.75104
440.242	231.77202
440.454	303.51529
440.665	373.16856
440.877	415.39169
441.088	267.64093
441.3	430.17133
441.511	303.51529
441.723	324.62032
441.934	280.30186
442.146	341.50562
442.357	396.39047
442.569	322.50973
442.78	377.39057
442.991	455.50964
443.203	387.9459
443.414	466.06793
443.626	493.52124
443.837	358.39204
444.048	413.28038
444.26	328.84154
444.471	510.41683
444.682	347.8379
444.894	415.39169
445.105	438.61718
445.316	466.06793
445.528	430.17133
445.739	472.40309
445.95	404.83529
446.161	575.89576
446.373	493.52124
446.584	539.98631
446.795	459.73291
447.006	590.68313
447.217	476.6266
447.429	504.08088
447.64	552.65979
447.851	518.86497
448.062	607.58375
448.273	531.53761
448.484	497.74505
448.695	544.21075
448.907	506.19285
449.118	556.88439
449.329	571.67092
449.54	624.48519
449.751	516.75291
449.962	512.52884
450.173	520.97704
450.384	668.85521
450.595	692.09872
450.806	611.80904
451.017	533.64976
451.228	656.17752
451.439	770.29117
451.65	776.63172
451.861	626.59793
452.072	683.64637
452.283	685.75944
452.494	818.90429
452.705	643.50026
452.915	751.27006
453.126	793.54029
453.337	778.74526
453.548	831.58679
453.759	895.00401
453.97	928.82952
454.181	937.28621
454.391	945.743
454.602	954.19992
454.813	990.14304
455.024	1026.08805
455.235	810.44948
455.445	928.82952
455.656	890.77596
455.867	968.99979
456.078	911.91652
456.288	899.23209
456.499	983.8
456.71	1085.29528
456.921	998.60053
457.131	1237.55917
457.342	998.60053
457.553	1123.35923
457.763	981.68566
457.974	1195.26165
458.184	1091.63916
458.395	1201.6062
458.606	1184.68748
458.816	1301.00754
459.027	1309.46748
459.237	1311.58247
459.448	1372.91786
459.659	1468.09497
459.869	1438.48424
460.08	1362.34271
460.29	1559.04165
460.501	1743.04018
460.711	1499.82071
460.922	1470.21003
461.132	1683.82443
461.343	1599.22671
461.553	1740.92537
461.764	1817.05584
461.974	1563.27168
462.184	1508.28089
462.395	1791.6796
462.605	1876.26449
462.816	1778.99126
463.026	1762.07324
463.236	1899.52396
463.447	1924.89719
463.657	1819.17049
463.867	2098.25705
464.078	1990.44082
464.288	2187.03238
464.498	2036.95199
464.709	2206.0538
464.919	2214.50754
465.129	2372.98808
465.339	2299.03709
465.55	2425.80264
465.76	2277.90607
465.97	2339.18341
466.18	2489.17131
466.391	2721.43323
466.601	2430.02752
466.811	2451.15128
467.021	2721.43323
467.231	3094.82194
467.441	2493.39553
467.651	2839.61612
467.862	2957.75506
468.072	3210.74961
468.282	2892.36231
468.492	3004.15416
468.702	3118.01137
468.912	3271.8551
469.122	3303.45582
469.332	3362.4335
469.542	3406.6578
469.752	3474.03216
469.962	3720.20952
470.172	3739.13551
470.382	3648.69731
470.592	3772.77783
470.802	3663.42221
471.012	3781.18763
471.222	3896.79037
471.432	3922.00477
471.642	4058.53194
471.852	4073.22969
472.062	4119.41598
472.272	4356.48441
472.482	4333.41896
472.691	4616.31163
472.901	4517.86865
473.111	4624.68748
473.321	4750.28216
473.531	4762.83716
473.741	4752.37472
473.95	5093.15611
474.16	4731.44813
474.37	5099.42242
474.58	4917.61482
474.79	5429.15177
474.999	5326.9564
475.209	5101.51115
475.419	5326.9564
475.628	5739.562
475.838	5260.18619
476.048	5597.96319
476.258	5539.6261
476.467	6167.8574
476.677	6140.85859
476.886	6421.03795
477.096	6443.84863
477.306	6138.78159
477.515	6190.69944
477.725	6309.01736
477.935	6265.4354
478.144	6532.99067
478.354	6362.96169
478.563	6930.50071
478.773	6963.58862
478.982	7021.47855
479.192	7044.21621
479.401	7197.1083
479.611	7178.51982
479.82	7393.21107
480.03	7465.40975
480.239	7591.17855
480.449	7432.40794
480.658	7706.56848
480.868	7823.95106
481.077	7856.88837
481.287	7807.48041
481.496	7922.74709
481.705	8035.89267
481.915	8342.10874
482.124	8239.40075
482.333	8276.38127
482.543	8469.39915
482.752	8649.94364
482.961	8491.97522
483.171	8760.66076
483.38	8736.06159
483.589	8895.90945
483.799	9022.89034
484.008	8904.10382
484.217	9029.03286
484.426	9440.23226
484.636	9430.01157
484.845	9693.5782
485.054	9491.3297
485.263	9726.25052
485.472	9640.47728
485.682	9999.73041
485.891	9791.58347
486.1	9705.83078
486.309	10038.48615
486.518	10411.50839
486.727	10050.72373
486.936	10427.80512
487.146	10301.48347
487.355	10505.20331
487.564	10602.94323
487.773	10765.77996
487.982	10635.51681
488.191	11005.82645
488.4	10810.54659
488.609	11066.83017
488.818	11101.39458
489.027	11274.17057
489.236	11341.22818
489.445	11385.92719
489.654	11081.06295
489.863	11607.32136
490.072	11469.21719
490.281	11820.48792
490.49	11830.63632
490.698	12191.78716
490.907	11913.84524
491.116	12228.29447
491.325	12159.33422
491.534	12027.47424
491.743	12053.84884
491.952	12412.82396
492.16	12394.57634
492.369	12698.63525
492.578	12347.94103
492.787	12872.90148
492.996	12528.37981
493.204	12927.60459
493.413	13022.81949
493.622	13282.07419
493.831	12694.58205
494.039	13219.29279
494.248	13255.74702
494.457	13458.24576
494.665	13225.3686
494.874	13259.7974
495.083	13409.64973
495.291	13597.94738
495.5	13638.43746
495.709	13881.35122
495.917	13486.59243
496.126	13812.53004
496.335	13745.7298
496.543	13840.86857
496.752	13921.83277
496.96	14314.45447
497.169	14018.98422
497.377	14271.95794
497.586	14280.05258
497.794	14595.72355
498.003	13976.48118
498.211	14583.58297
498.42	14617.98117
498.628	14692.84677
498.837	14779.85117
499.045	14611.91092
499.254	14591.67669
499.462	14779.85117
499.671	14820.31783
499.879	15188.55621
500.087	15046.92715
500.296	15508.23598
500.504	15263.41729
500.713	15202.71911
500.921	15289.71988
501.129	15494.07273
501.338	15233.06818
501.546	15471.81625
501.754	15326.13892
501.962	15649.87034
502.171	15767.22764
502.379	15987.78843
502.587	15965.52932
502.795	16003.97698
503.004	15886.61195
503.212	16131.46508
503.42	15931.1292
503.628	16095.03929
503.837	15997.90626
504.045	16095.03929
504.253	16453.25055
504.461	16392.5327
504.669	16382.41323
504.877	16758.89304
505.085	16663.75378
505.294	16835.81804
505.502	16667.80215
505.71	16868.20859
505.918	16884.40411
506.126	16621.2464
506.334	16746.74731
506.542	17125.3324
506.75	16742.69876
506.958	16985.62985
507.166	16987.65444
507.374	16975.50698
507.582	17258.97346
507.79	17103.0601
507.998	17321.74866
508.206	17396.67769
508.414	17192.15136
508.622	17532.37076
508.83	17159.7539
509.037	17427.05551
509.245	17084.83756
509.453	17629.59251
509.661	17668.07819
509.869	17984.11204
510.077	18016.53055
510.285	18030.71393
510.492	17751.13033
510.7	17815.95544
510.908	18024.63532
511.116	18020.58293
511.324	18186.74282
511.531	18184.71633
511.739	17878.75812
511.947	18389.4103
512.155	18053.00246
512.362	18434.00218
512.57	18067.1863
512.778	18164.45166
512.985	18365.08822
513.193	18200.92833
513.401	18336.71316
513.608	18235.37962
513.816	18553.59865
514.024	18387.38344
514.231	18202.95485
514.439	18813.10869
514.646	18654.96211
514.854	18817.16405
515.061	18442.11
515.269	19042.26148
515.477	19109.19194
515.684	19340.4405
515.892	18904.35808
516.099	19277.55183
516.307	19324.21079
516.514	19441.88221
516.722	19356.67048
516.929	19486.51985
517.136	19403.33314
517.344	19287.6949
517.551	19417.53525
517.759	19941.12725
517.966	19626.53278
518.173	19559.5676
518.381	19667.11996
518.588	19803.0992
518.796	19859.93193
519.003	20064.96307
519.21	19851.81277
519.418	19989.84767
519.625	19910.67822
519.832	20241.60845
520.039	20077.14449
520.247	20339.08159
520.454	20186.78406
520.661	20603.11986
520.868	20235.5167
521.076	20881.45183
521.283	20586.86931
521.49	20375.63651
521.697	20511.71399
521.904	20552.33778
522.112	20735.16546
522.319	20995.24491
522.526	20826.59193
522.733	20822.52835
522.94	20895.67526
523.147	20779.8618
523.354	21011.50212
523.561	21336.70103
523.768	21287.91458
523.975	21511.53808
524.183	21025.72739
524.39	21407.85208
524.597	21324.5042
524.804	21377.35817
525.011	21696.572
525.218	21501.37233
525.425	21662.00275
525.632	21415.98394
525.838	21832.82646
526.045	21731.14238
526.252	22003.67738
526.459	22127.76448
526.666	21975.20035
526.873	22093.18142
527.08	21942.6561
527.287	21995.54101
527.494	21893.84155
527.701	22400.3979
527.907	22262.03834
528.114	22369.87596
528.321	22367.84119
528.528	22575.40602
528.735	22831.8605
528.941	22481.79372
529.148	22512.31864
529.355	22927.53613
529.562	22628.32065
529.768	22693.44961
529.975	22689.37895
530.182	23037.47053
530.388	22831.8605
530.595	23169.81183
530.802	22760.6176
531.008	22864.43008
531.215	22988.60959
531.422	23505.81633
531.628	23204.42646
531.835	23074.1175
532.042	23501.74304
532.248	23495.63312
532.455	23487.4866
532.661	23383.62291
532.868	23526.18299
533.074	23701.34883
533.281	23654.49996
533.487	23660.61059
533.694	23379.54999
533.9	23894.87159
534.107	23964.13873
534.313	24249.39051
534.52	24059.89577
534.726	24096.57032
534.933	23984.51205
535.139	24404.26373
535.345	24259.57907
535.552	24510.23831
535.758	24271.80542
535.965	24707.93995
536.171	24394.07424
536.377	24769.08949
536.584	24555.07579
536.79	24673.28952
536.996	24915.85715
537.203	24426.68085
537.409	24752.78273
537.615	24862.8563
537.821	24695.71031
538.028	25233.89468
538.234	25038.17279
538.44	25211.46718
538.646	24787.43477
538.853	25133.99241
539.059	24785.3964
539.265	25113.60485
539.471	25374.58217
539.677	25582.57315
539.883	25439.83195
540.09	25399.05059
540.296	25605.0048
540.502	26023.09172
540.708	25168.65179
540.914	25696.77314
541.12	25454.10562
541.326	25847.68956
541.532	25753.87543
541.738	26051.64682
541.944	25658.02603
542.15	25849.72905
542.356	25813.01866
542.562	26084.28165
542.768	26331.09682
542.974	26369.85516
543.18	26459.61355
543.386	26665.66144
543.592	26475.93359
543.798	26826.83842
544.004	26441.25363
544.21	26547.33497
544.415	26214.82541
544.621	26616.69814
544.827	26459.61355
545.033	26635.05927
545.239	26969.66107
545.445	26906.41018
545.651	26759.5102
545.856	26765.63088
546.062	27198.19153
546.268	27075.76237
546.474	27273.69192
546.679	26763.59066
546.885	26451.45357
547.091	26351.49587
547.297	26655.46068
547.502	27226.75903
547.708	27255.32679
547.914	27483.87799
548.119	27551.22199
548.325	27618.56733
548.531	27175.74583
548.736	27402.25073
548.942	27287.97598
549.147	27367.55975
549.353	27675.70987
549.559	27867.55234
549.764	27555.30349
549.97	27626.73049
550.175	27781.83421
550.381	27912.45314
550.586	27602.24106
550.792	28265.55569
550.997	27689.99565
551.203	28592.15362
551.408	28630.93892
551.614	28036.95368
551.819	28473.75871
552.025	28784.04253
552.23	28126.75996
552.435	28653.39375
552.641	28869.78311
552.846	28859.5758
553.052	28379.86185
553.257	28802.41535
553.462	28673.80734
553.668	28869.78311
553.873	28992.27283
554.078	29178.05603
554.283	28553.36869
554.489	28943.27649
554.694	29357.72271
554.899	28879.99044
555.105	29216.84702
555.31	28804.45678
555.515	29035.14511
555.72	29176.01441
555.925	28900.40519
556.131	29849.80642
556.336	29341.38904
556.541	29719.12248
556.746	29416.93282
556.951	29668.07528
557.156	29629.27986
557.361	29492.47805
557.567	30109.14589
557.772	29704.8292
557.977	29857.97431
558.182	30009.08361
558.387	29880.43612
558.592	29745.66729
558.797	29598.65217
559.002	30119.35648
559.207	30031.54633
559.412	30158.15699
559.617	29813.05111
559.822	30113.23012
560.027	29800.79941
560.232	29923.31812
560.437	30054.00919
560.642	30329.70121
560.847	29904.94006
561.051	30513.50809
561.256	29821.21892
561.461	30203.08443
561.666	30227.59055
561.871	30386.8845
562.076	30313.3633
562.281	30576.8217
562.485	29825.30284
562.69	30444.06876
562.895	29847.76445
563.1	30431.81491
563.305	30035.63048
563.509	30703.45265
563.714	30478.78825
563.919	30803.53554
564.123	30574.77931
564.328	30570.69453
564.533	30725.91995
564.737	30566.60975
564.942	30909.74954
565.147	31109.93247
565.351	31154.87343
565.556	30768.81254
565.761	30868.89756
565.965	30795.36539
566.17	30846.42921
566.374	30656.47607
566.579	31046.6078
566.784	30952.64472
566.988	31163.04459
567.193	31283.57205
567.397	31089.505
567.602	31389.80414
567.806	31032.30887
568.011	31410.23389
568.215	31373.46046
568.42	31114.01799
568.624	31720.78658
568.828	31681.96532
569.033	31540.98814
569.237	31626.79935
569.442	31483.78232
569.646	31747.34887
569.85	31630.88568
570.055	31861.77455
570.259	31622.71304
570.463	31990.51044
570.668	31882.20831
570.872	31630.88568
571.076	31957.81489
571.281	31802.51768
571.485	32147.86481
571.689	32135.603
571.893	31980.29303
572.098	32589.34106
572.302	32137.64663
572.506	32121.29765
572.71	31798.43105
572.914	32544.37113
573.119	32084.51293
573.323	31808.64763
573.527	32370.63404
573.731	32295.0123
573.935	32810.11929
574.139	32472.83036
574.343	32325.66941
574.547	32454.43461
574.751	32900.07426
574.955	32746.74486
575.159	32603.64991
575.364	32669.06328
575.568	32695.63816
575.772	32511.66643
575.976	32374.72179
576.18	32476.91833
576.383	32873.49614
576.587	32912.34123
576.791	32513.71046
576.995	32679.28434
577.199	32552.5474
577.403	33102.49139
577.607	33403.10021
577.811	33411.28092
578.015	32669.06328
578.219	32922.56377
578.422	32895.98529
578.626	32983.90042
578.83	32816.25243
579.034	33165.87997
579.238	33116.80471
579.442	33401.05504
579.645	33556.49665
579.849	33486.9548
580.053	33728.32162
580.257	33167.92481
580.46	33505.36259
580.664	33865.38906
580.868	33372.42297
581.071	33781.51018
581.275	34047.48755
581.479	33621.95112
581.682	33785.60171
581.886	33630.13315
582.09	33654.67957
582.293	33748.77849
582.497	33744.68709
582.7	34186.63809
582.904	34243.94035
583.107	33879.71042
583.311	33718.0933
583.515	33736.50433
583.718	33699.68254
583.922	34344.22647
584.125	34037.25656
584.329	34112.96805
584.532	34368.78775
584.735	34475.22653
584.939	34112.96805
585.142	34608.29035
585.346	34127.29241
585.549	34471.13254
585.753	34673.80511
585.956	34579.62898
586.159	34393.3496
586.363	35021.92673
586.566	35148.92132
586.769	34874.47135
586.973	34589.86509
587.176	35120.24354
587.379	34716.80153
587.582	35058.79428
587.786	34798.7047
587.989	35144.82444
588.192	34731.13408
588.395	35132.53391
588.599	35028.07122
588.802	35456.24297
589.005	35282.08045
589.208	35452.14461
589.411	35089.51838
589.615	35142.776
589.818	35696.0332
590.021	35325.10548
590.224	34923.62054
590.427	35228.81434
590.63	35093.61501
590.833	35114.09843
591.036	35284.12921
591.239	35484.93207
591.442	35433.70225
591.645	35466.48896
591.848	35960.50287
592.051	36169.68531
592.254	35677.58523
592.457	36149.17454
592.66	35948.1999
592.863	35759.57955
593.066	36040.47725
593.269	35745.22992
593.472	35960.50287
593.675	36672.39139
593.878	36350.20609
594.081	36561.55829
594.284	36945.45173
594.486	36337.89636
594.689	35991.26122
594.892	36161.48093
595.095	36571.81982
595.298	36231.22123
595.5	36333.79317
595.703	36772.97873
595.906	36775.0317
596.109	36218.91361
596.311	36212.75989
596.514	36235.32381
596.717	36397.39547
596.92	36731.92075
597.122	36253.78575
597.325	36703.18174
597.528	36682.65468
597.73	37343.97111
597.933	36569.7675
598.136	36604.6578
598.338	36933.13063
598.541	37313.14805
598.743	37288.4908
598.946	36990.63123
599.148	37169.32889
599.351	36818.1456
599.554	37522.77803
599.756	37594.72805
599.959	37436.45034
600.161	37533.05603
600.363	37323.42222
600.566	37428.22935
600.768	37753.05158
600.971	37364.52075
601.173	37222.74328
601.376	37191.92669
601.578	37489.88971
601.78	37683.13676
601.983	37911.4221
602.185	36961.88025
602.388	37167.27459
602.59	37477.55709
602.792	37389.18129
602.995	37631.7346
603.197	37413.84291
603.399	37693.41778
603.601	37177.54617
603.804	36816.09249
604.006	37605.0074
604.208	37251.5069
604.41	37422.06369
604.613	37389.18129
604.815	37000.89976
605.017	37600.89564
605.219	37578.2815
605.421	37350.13593
605.623	37816.80542
605.826	37874.39615
606.028	37796.23883
606.23	38108.93868
606.432	37399.45683
606.634	38347.70773
606.836	37650.23882
607.038	37557.72401
607.24	37152.89467
607.442	37364.52075
607.644	37309.03844
607.846	37781.84269
608.048	38226.25052
608.25	38240.65914
608.452	38094.53385
608.654	38557.75611
608.856	38578.35404
609.058	38539.21873
609.26	38197.43454
609.462	38271.53615
609.664	38370.35562
609.866	37683.13676
610.067	38049.26419
610.269	37921.70756
610.471	37839.4296
610.673	38471.2545
610.875	38397.12266
611.077	38090.41826
611.278	37882.62391
611.48	38234.48396
611.682	38288.00468
611.884	38609.25263
612.085	38292.1219
612.287	38390.94552
612.489	38285.94609
612.69	38372.41457
612.892	38281.82892
613.094	38576.29421
613.295	38123.34392
613.497	38325.06089
613.699	37736.60021
613.9	38430.06874
614.102	38141.86555
614.304	38261.2436
614.505	38018.40081
614.707	38094.53385
614.908	37424.1189
615.11	38016.34332
615.311	37954.62238
615.513	38197.43454
615.714	38158.3298
615.916	38434.18716
616.117	38399.18172
616.319	38495.96765
616.52	37588.56054
616.722	37802.40872
616.923	37931.99321
617.124	38485.67035
617.326	37905.25093
617.527	38520.68207
617.729	38314.76722
617.93	38071.89851
618.131	38213.90061
618.333	37790.06901
618.534	38609.25263
618.735	38870.94264
618.937	38180.96901
619.138	37537.16728
619.339	38096.59166
619.54	38290.06329
619.742	38125.40185
619.943	38633.97296
620.144	38310.64981
620.345	38415.65455
620.546	38353.88432
620.748	38355.9432
620.949	38080.12943
621.15	38374.47353
621.351	38145.98156
621.552	38448.60189
621.753	38372.41457
621.954	38615.43259
622.155	38351.82545
622.356	38739.0489
622.558	38312.70851
622.759	38456.83908
622.96	38045.14896
623.161	38590.71324
623.362	38411.53629
623.563	39068.85501
623.764	38393.00456
623.965	38646.33361
624.166	38998.75108
624.366	38594.83304
624.567	38722.56483
624.768	38862.69817
624.969	38253.00971
625.17	38588.65335
625.371	38275.65323
625.572	38160.38787
625.773	37944.33627
625.973	38358.00209
626.174	38582.47374
626.375	38572.17457
626.576	38528.9205
626.777	38557.75611
626.977	38160.38787
627.178	38873.00378
627.379	38133.63363
627.58	37866.16852
627.78	37991.65405
627.981	38611.31261
628.182	39184.34442
628.382	38844.14865
628.583	38734.92783
628.784	38452.72047
628.984	38572.17457
629.185	39442.24361
629.386	38502.14613
629.586	39353.5089
629.787	39182.28185
629.987	38784.38311
630.188	38512.44379
630.388	38718.44391
630.589	38360.06099
630.79	39138.96998
630.99	38763.7761
631.191	38648.39375
631.391	39365.88939
631.591	38928.65811
631.792	38840.02664
631.992	39093.6002
632.193	39398.90576
632.393	39176.09418
632.594	39202.90805
632.794	38920.41259
632.994	38947.21107
633.195	38759.65481
633.395	39359.6991
633.595	38936.90378
633.796	39270.98141
633.996	39312.24319
634.196	39427.79717
634.397	39334.93884
634.597	38891.55446
634.797	39143.09474
634.997	39110.09776
635.198	39079.16534
635.398	39039.98735
635.598	39574.34818
635.798	39334.93884
635.998	39149.28194
636.199	39566.09044
636.399	39132.78292
636.599	39060.60692
636.799	39254.4778
636.999	39136.90762
637.199	39506.22661
637.399	38893.6157
637.599	38778.20091
637.799	38502.14613
637.999	39011.12157
638.199	39363.82595
638.399	39586.73511
638.599	39332.87555
638.799	39471.13797
638.999	39520.67572
639.199	40061.84805
639.399	38982.25764
639.599	39403.03298
639.799	38947.21107
639.999	39252.4149
640.199	39204.97072
640.399	39357.63569
640.599	38745.23057
640.799	40051.51359
640.998	39830.4197
641.198	39696.16892
641.398	39543.38247
641.598	39700.29906
641.798	39502.09838
641.997	39869.67055
642.197	39481.45786
642.397	39723.01557
642.597	39530.99682
642.796	39555.76848
642.996	39382.39726
643.196	39776.71413
643.395	39252.4149
643.595	39541.31817
643.795	39743.66803
643.994	39983.31283
644.194	39756.06001
644.394	39559.89723
644.593	39235.91199
644.793	39392.715
644.992	39398.90576
645.192	39475.26589
645.392	40047.37988
645.591	40018.4451
645.791	39702.36414
645.99	39308.11683
646.19	39403.03298
646.389	39805.63164
646.589	40096.98723
646.788	39944.05097
646.987	39394.77857
647.187	39900.66073
647.386	39619.76871
647.586	39774.64867
647.785	39760.19075
647.984	40142.46607
648.184	39921.32217
648.383	40256.18608
648.582	40008.11176
648.782	40272.72992
648.981	39481.45786
649.18	39671.38893
649.38	39473.20192
649.579	40047.37988
649.778	40134.1968
649.977	39989.51242
650.177	40167.27491
650.376	40032.91223
650.575	39374.14324
650.774	40130.06223
650.973	39751.92931
651.173	39886.19835
651.372	39803.56603
651.571	40369.93912
651.77	40076.31675
651.969	39530.99682
652.168	39421.60599
652.367	39977.11333
652.566	40349.25428
652.765	40392.69372
652.964	40709.32968
653.163	40512.69475
653.362	40190.01772
653.561	40043.24621
653.76	40028.77871
653.959	40214.82955
654.158	40616.17411
654.357	39991.57897
654.556	39528.93258
654.755	40072.18278
654.954	40460.96558
655.153	40214.82955
655.352	40229.30384
655.551	40400.96846
655.749	40291.34257
655.948	40268.59389
656.147	40057.71423
656.346	40589.26677
656.545	40672.0647
656.743	40398.89976
656.942	40198.28815
657.141	40088.71891
657.34	39927.52081
657.538	40434.06916
657.737	40667.92437
657.936	40692.76701
658.135	40278.93403
658.333	39716.82004
658.532	39718.8852
658.731	39789.1071
658.929	39939.91837
659.128	39840.74851
659.326	39741.60274
659.525	39991.57897
659.724	40270.6619
659.922	40572.70936
660.121	39743.66803
660.319	39981.24632
660.518	39611.51006
660.716	39985.37935
660.915	40214.82955
661.113	40877.06797
661.312	39859.34101
661.51	40142.46607
661.709	40024.64524
661.907	40320.29734
662.105	40547.87458
662.304	40518.90272
662.502	40684.48595
662.701	40589.26677
662.899	40099.05434
663.097	40425.79372
663.296	40070.11581
663.494	40899.85307
663.692	40208.62644
663.891	40647.22342
664.089	39820.09116
664.287	40444.41372
664.485	40672.0647
664.684	40939.21245
664.882	40481.65641
665.08	40241.7108
665.278	40260.32197
665.476	39964.71463
665.675	40037.04579
665.873	39483.52186
666.071	39522.73992
666.269	40008.11176
666.467	39378.27023
666.665	39995.7121
666.863	39347.31879
667.061	39365.88939
667.259	39452.5628
667.457	39733.34167
667.655	38963.70323
667.853	40165.20745
668.051	39756.06001
668.249	39677.58379
668.447	39590.86417
668.645	39184.34442
668.843	39149.28194
669.041	39543.38247
669.239	39473.20192
669.437	39572.28373
669.635	39855.20927
669.833	39975.04686
670.031	39328.749
670.229	38941.02667
670.426	38912.16723
670.624	39427.79717
670.822	39462.88224
671.02	40130.06223
671.218	39784.97607
671.415	39419.54228
671.613	39669.324
671.811	38996.68937
672.009	39890.33041
672.206	39539.25388
672.404	39254.4778
672.602	39215.28423
672.799	39277.17043
672.997	39787.04158
673.195	39357.63569
673.392	39328.749
673.59	39535.12533
673.788	39712.68973
673.985	40096.98723
674.183	39638.35125
674.38	39731.27643
674.578	39359.6991
674.775	39200.84538
674.973	39066.79297
675.17	39180.21928
675.368	39174.03164
675.565	39807.69725
675.763	39605.31619
675.96	39285.42259
676.158	38969.88795
676.355	39481.45786
676.553	39520.67572
676.75	39308.11683
676.947	39083.28954
677.145	39215.28423
677.342	39818.02548
677.539	39339.06545
677.737	39301.92738
677.934	38924.53533
678.131	39283.35953
678.329	39085.35165
678.526	39248.28911
678.723	39134.84526
678.92	39504.16249
679.118	39258.60365
679.315	39066.79297
679.512	39182.28185
679.709	39599.1224
679.906	39124.53364
680.104	38697.83983
680.301	38491.8487
680.498	38341.53121
680.695	38325.06089
680.892	38809.11273
681.089	38730.80679
681.286	38990.50428
681.483	38405.35897
681.68	38668.99565
681.877	38438.30561
682.075	38568.05496
682.272	38327.11965
682.469	38776.14019
682.665	38565.99518
682.862	38036.91861
683.059	38084.24494
683.256	38393.00456
683.453	37705.75527
683.65	37563.89117
683.847	38594.83304
684.044	38409.47718
684.241	37923.76467
684.438	38689.59845
684.635	38156.27174
684.831	39093.6002
685.028	38335.35478
685.225	38080.12943
685.422	37354.24584
685.619	37450.83736
685.815	37578.2815
686.012	38010.17089
686.209	37504.27811
686.405	38063.66773
686.602	37845.6
686.799	37637.9026
686.996	37775.67303
687.192	37753.05158
687.389	37397.40171
687.586	37639.95862
687.782	37522.77803
687.979	37713.98041
688.175	37944.33627
688.372	37971.08057
688.568	37866.16852
688.765	37874.39615
688.962	37438.5056
689.158	37859.99788
689.355	37376.85088
689.551	36881.79538
689.748	37185.76357
689.944	36777.08467
690.14	37483.72337
690.337	36912.59602
690.533	37668.74367
690.73	37128.24421
690.926	38086.3027
691.123	37292.60027
691.319	37013.22224
691.515	37142.62352
691.712	37064.56859
691.908	36604.6578
692.104	36848.94307
692.301	36980.36286
692.497	37052.24507
692.693	36836.6239
692.889	36770.92577
693.086	36606.71023
693.282	37050.19117
693.478	36980.36286
693.674	37041.97566
693.87	36970.09468
694.067	36922.86324
694.263	36918.75633
694.459	37397.40171
694.655	37111.81114
694.851	36879.74206
695.047	36818.1456
695.243	36857.15598
695.439	36723.70947
695.635	36565.66289
695.831	36549.24467
696.027	36473.31574
696.224	36567.71519
696.42	36046.62949
696.615	36475.36776
696.811	36428.17292
697.007	36319.43218
697.203	35648.88925
697.399	36077.39147
697.595	35673.48574
697.791	36309.17451
697.987	36017.91949
698.183	36491.78414
698.379	35997.41304
698.575	36666.2335
698.77	36360.46438
698.966	36270.19677
699.162	36161.48093
699.358	36401.49905
699.554	36095.84928
699.749	35939.99803
699.945	36272.24818
700.141	36565.66289
700.337	36149.17454
700.532	36313.27756
700.728	36645.70761
700.924	36530.77467
701.119	36536.93128
701.315	36305.07149
701.511	35769.82945
701.706	36149.17454
701.902	35747.27985
702.097	35376.32862
702.293	35396.81875
702.489	35556.65922
702.684	35486.98133
702.88	36083.54402
703.075	35761.62952
703.271	35321.00777
703.466	34886.75841
703.662	35124.34031
703.857	35167.35753
704.053	35259.54438
704.248	35384.52461
704.443	35331.2521
704.639	35206.27967
704.834	35683.7345
705.03	35550.51093
705.225	35749.32978
705.42	35583.30235
705.616	35999.46366
705.811	35589.45089
706.006	35486.98133
706.202	35441.8988
706.397	35464.43976
706.592	36241.47774
706.787	35732.93044
706.983	35812.88053
707.178	36001.51428
707.373	35597.64902
707.568	35380.4266
707.763	35071.08379
707.959	34837.61114
708.154	35513.62217
708.349	34829.42018
708.544	34935.90824
708.739	34679.94734
708.934	34915.42883
709.129	34749.56197
709.324	34604.19582
709.519	34843.75441
709.714	35032.16756
709.909	35081.32518
710.104	34235.75413
710.299	34712.70655
710.494	34989.15683
710.689	34925.66848
710.884	34821.22929
711.079	35359.93688
711.274	34708.61159
711.469	35331.2521
711.664	34770.0378
711.859	34356.50704
712.054	33853.11375
712.249	34286.91899
712.443	34002.47185
712.638	34530.4971
712.833	34280.77908
713.028	34499.79086
713.223	34094.55129
713.417	34186.63809
713.612	34139.57057
713.807	34481.36756
714.002	34018.841
714.196	34098.64388
714.391	34012.70254
714.586	34102.73648
714.78	34313.52566
714.975	34426.09961
715.17	33902.21574
715.364	34671.75771
715.559	35001.4454
715.754	34072.04231
715.948	33887.89412
716.143	34029.07183
716.337	33568.76912
716.532	34076.13482
716.726	33840.83856
716.921	33697.63692
717.115	33853.11375
717.31	34282.82571
717.504	33873.57267
717.699	34016.79484
717.893	33366.2876
718.088	33885.84819
718.282	33568.76912
718.476	33699.68254
718.671	33104.53614
718.865	33259.94542
719.059	33210.86705
719.254	33292.66525
719.448	33274.26026
719.642	33345.83657
719.837	32773.32094
720.031	33354.01695
720.225	33018.6589
720.419	33096.35715
720.614	33120.89425
720.808	33202.68748
721.002	32748.78915
721.196	32985.94501
721.39	32769.23229
721.585	33004.34649
721.779	33122.93903
721.973	33082.04402
722.167	32748.78915
722.361	32662.93067
722.555	32626.13548
722.749	32401.29236
722.943	32448.30274
723.137	32241.87446
723.331	31902.64227
723.525	31921.03299
723.719	32423.77543
723.913	32207.13125
724.107	32889.85185
724.301	33184.28361
724.495	32773.32094
724.689	32754.92207
724.883	32536.1949
725.077	32534.15085
725.271	32699.72664
725.465	32832.60757
725.659	32348.15159
725.853	32008.9019
726.046	32252.09316
726.24	31884.2517
726.434	31722.82983
726.628	32266.39944
726.822	31465.39501
727.015	32358.37086
727.209	31841.34097
727.403	32151.95209
727.596	32096.77443
727.79	32213.26236
727.984	32006.8584
728.177	32470.78638
728.371	32323.62559
728.565	32201.00016
728.758	32460.56651
728.952	32587.29695
729.146	32448.30274
729.339	32601.60579
729.533	32000.7279
729.726	32499.40232
729.92	32062.03369
730.113	32078.3822
730.307	31998.6844
730.5	31777.99804
730.694	31943.51074
730.887	31559.376
731.081	31659.49014
731.274	31612.49727
731.468	31261.10042
731.661	31097.67597
731.854	31463.35198
732.048	31361.20277
732.241	31081.33406
732.435	31489.91145
732.628	31555.2898
732.821	31692.18138
733.014	31316.25839
733.208	31089.505
733.401	30991.45519
733.594	31334.64464
733.788	31359.15983
733.981	31814.77759
734.174	31794.34444
734.367	31859.73118
734.56	31455.1799
734.754	31696.26782
734.947	31992.55393
735.14	32133.55937
735.333	31947.59763
735.526	31434.74979
735.719	31156.91622
735.912	31504.21282
736.105	30934.261
736.298	30768.81254
736.491	30711.62256
736.684	30699.3677
736.877	31402.06197
737.07	31502.16976
737.263	31402.06197
737.456	31679.92211
737.649	31244.75754
737.842	31028.22348
738.035	31246.80039
738.228	31230.4576
738.421	31203.90076
738.614	31306.04387
738.807	31479.69624
739	31530.77271
739.192	30766.77002
739.385	31146.70229
739.578	31716.7001
739.771	31761.65177
739.964	31326.47296
740.156	31710.5704
740.349	31385.71821
740.542	31530.77271
740.735	31487.8684
740.927	31575.72088
741.12	31265.18616
741.313	31287.65782
741.505	31551.2036
741.698	31228.41475
741.891	31114.01799
742.083	30640.13655
742.276	30844.38664
742.468	31038.43697
742.661	30709.58008
742.854	30758.59996
743.046	30335.82795
743.239	30421.6034
743.431	30815.79081
743.624	30872.98273
743.816	30456.32265
744.009	30968.98591
744.201	30672.81567
744.393	30568.65214
744.586	30427.7303
744.778	30950.60208
744.971	30625.83954
745.163	30433.85721
745.355	30235.75929
745.548	30317.44777
745.74	30460.4073
745.932	30834.17381
746.125	30466.53427
746.317	30531.88934
746.509	30517.59281
746.702	30971.02856
746.894	30852.55692
747.086	30076.47219
747.278	30103.01955
747.471	29964.15858
747.663	29868.18421
747.855	29876.35214
748.047	30080.55638
748.239	30068.30381
748.431	30793.32285
748.623	30566.60975
748.815	30462.44962
749.008	30082.59848
749.2	30354.20822
749.392	30323.57449
749.584	29525.1467
749.776	30160.19914
749.968	30172.45203
750.16	29739.54155
750.352	29694.61974
750.544	29478.1856
750.736	29451.64261
750.928	29782.42195
751.12	29782.42195
751.311	29617.02876
751.503	29163.76471
751.695	29249.5134
751.887	28947.3595
752.079	29653.78219
752.271	28910.6126
752.463	29088.22572
752.654	29141.30702
752.846	29263.80503
753.038	28957.56703
753.23	28859.5758
753.421	29347.51416
753.613	29235.22183
753.805	29259.7217
753.997	29120.89105
754.188	29053.51909
754.38	28882.03191
754.572	28992.27283
754.763	28796.29107
754.955	28949.401
755.146	28951.4425
755.338	28992.27283
755.53	28826.91259
755.721	28641.14565
755.913	28379.86185
756.104	28696.26241
756.296	28806.49821
756.487	28457.42866
756.679	28600.31891
756.87	28416.60383
757.062	28071.65131
757.253	28063.48713
757.445	28375.77943
757.636	28288.00842
757.827	28569.69914
758.019	28122.67781
758.21	27914.4941
758.401	27665.50577
758.593	27810.40669
758.784	27455.30822
758.975	27394.08811
759.167	27769.58893
759.358	28388.0267
759.549	27769.58893
759.74	27602.24106
759.932	27541.01827
760.123	27357.35659
760.314	27467.55238
760.505	27057.39841
760.696	27332.86915
760.888	27222.67795
761.079	27330.82853
761.27	27139.01683
761.461	27141.05732
761.652	26859.48298
761.843	27006.38802
762.034	26928.85389
762.225	26794.19424
762.416	27365.51912
762.607	27234.92123
762.798	27500.20368
762.989	27518.57019
763.18	27532.85531
763.371	27224.71849
763.562	26857.44269
763.753	26520.81423
763.944	26965.58033
764.135	26939.05563
764.326	27210.43472
764.517	27494.08154
764.708	26792.15399
764.899	26477.97361
765.089	26614.65802
765.28	26294.37895
765.471	26049.60716
765.662	26076.1229
765.853	25672.3012
766.043	25839.53166
766.234	26243.3828
766.425	25768.15123
766.615	26049.60716
766.806	26414.73396
766.997	26271.94051
767.187	26273.98036
767.378	26361.69546
767.569	26080.20227
767.759	26273.98036
767.95	26441.25363
768.141	26235.22351
768.331	26088.36103
768.522	26074.08321
768.712	25666.18326
768.903	26239.30315
769.093	25682.49781
769.284	25405.16774
769.474	25276.71154
769.665	25354.19205
769.855	25435.75377
770.046	25401.08964
770.236	25038.17279
770.426	25374.58217
770.617	25407.20679
770.807	25323.60727
770.998	25366.4261
771.188	25358.27006
771.378	25443.91013
771.569	24985.16833
771.759	25223.70033
771.949	24981.09113
772.139	25574.41624
772.33	24687.55726
772.52	25248.16686
772.71	24760.93609
772.9	24699.78685
773.09	24864.89477
773.281	24673.28952
773.471	24773.1662
773.661	24736.47613
773.851	24320.71181
774.041	24671.25128
774.231	24367.58185
774.421	24202.52402
774.611	23980.43736
774.802	23811.348
774.992	23890.79716
775.182	24106.75785
775.372	23843.94199
775.562	23772.64361
775.752	24013.03517
775.942	23750.23629
776.131	23890.79716
776.321	24082.30788
776.511	24192.33584
776.701	24245.31511
776.891	23929.50475
777.081	24222.90058
777.271	24198.44874
777.461	24422.60499
777.651	24110.83288
777.84	23843.94199
778.03	23465.08394
778.22	23630.05771
778.41	23322.53043
778.599	23524.14631
778.789	23683.01648
778.979	23438.60856
779.169	23383.62291
779.358	23277.7311
779.548	23102.62143
779.738	23544.51325
779.927	23424.3528
780.117	23788.94006
780.307	23157.59513
780.496	23127.05389
780.686	23045.61421
780.875	22660.88468
781.065	23224.78844
781.254	22785.04326
781.444	22892.92918
781.633	22901.0719
781.823	22929.57186
782.012	22744.33411
782.202	22815.57604
782.391	22605.9334
782.581	22872.57261
782.77	22732.12163
782.96	22929.57186
783.149	22420.74631
783.338	22329.18131
783.528	22144.03924
783.717	22211.17513
783.906	22176.58947
784.096	22026.0527
784.285	22221.34759
784.474	21952.82607
784.663	22180.65831
784.853	21810.45513
785.042	21983.33657
785.231	22176.58947
785.42	21568.46812
785.61	22156.24546
785.799	21777.91585
785.988	21883.67212
786.177	21763.68023
786.366	21739.27675
786.555	21570.50139
786.744	21560.33507
786.933	21781.98321
787.122	21812.48887
787.312	22066.73629
787.501	21932.48622
787.69	21781.98321
787.879	22117.59288
788.068	21792.15166
788.257	21381.42397
788.445	21283.84915
788.634	21304.17647
788.823	21001.34133
789.012	21629.46802
789.201	21501.37233
789.39	21395.65441
789.579	21243.19571
789.768	21346.86516
789.957	21163.92616
790.145	21495.27292
790.334	21357.0294
790.523	21068.40441
790.712	20924.12272
790.9	21001.34133
791.089	20767.67169
791.278	21383.45688
791.467	20704.69184
791.655	20970.8596
791.844	20710.78649
792.033	20383.76001
792.221	20347.20479
792.41	20611.24523
792.599	20209.11955
792.787	20668.12473
792.976	20353.29723
793.164	20428.44047
793.353	20408.13092
793.541	20517.80745
793.73	20261.91456
793.918	20418.28564
794.107	20215.21114
794.295	20359.38971
794.484	20548.27532
794.672	20568.58776
794.861	20599.0572
795.049	20188.81454
795.238	20077.14449
795.426	20438.5954
795.614	20010.14856
795.803	20272.06777
795.991	20042.63086
796.179	20324.86615
796.368	20144.14499
796.556	20062.93285
796.744	20073.084
796.932	20002.02816
797.121	19888.34953
797.309	20223.33331
797.497	20026.38958
797.685	19825.42595
797.874	19995.9379
798.062	19801.06952
798.25	19267.40887
798.438	19904.58852
798.626	19730.03339
798.814	19618.41555
799.002	19419.56414
799.19	19652.91426
799.378	19356.67048
799.566	19518.98485
799.755	19454.05591
799.943	19397.24658
800.131	19435.79541
800.318	19732.06292
800.506	19413.47749
800.694	19283.63766
800.882	19350.58421
801.07	19271.46604
801.258	19178.15523
801.446	19537.24688
801.634	19163.95652
801.822	19498.6941
802.01	18973.30745
802.197	19480.43278
802.385	19312.03868
802.573	19210.61018
802.761	19052.40217
802.949	19210.61018
803.136	19159.89978
803.324	19163.95652
803.512	19030.09278
803.699	19074.71206
803.887	19230.89506
804.075	19271.46604
804.262	19403.33314
804.45	19456.08488
804.638	19289.72352
804.825	19555.50925
805.013	19630.59143
805.201	19433.76649
805.388	19220.75257
805.576	19608.2691
805.763	19184.24045
805.951	19527.10126
806.138	19454.05591
806.326	19594.06425
806.513	19425.65084
806.701	19054.43033
806.888	19042.26148
807.075	19307.98134
807.263	19076.74025
807.45	19628.5621
807.638	19598.12276
807.825	19697.56144
808.012	19139.61634
808.2	19076.74025
808.387	19182.21204
808.574	18981.41945
808.761	19042.26148
808.949	19437.82434
809.136	19194.38257
809.323	19454.05591
809.51	19699.5909
809.698	19279.58044
809.885	19170.04165
810.072	19801.06952
810.259	19788.89154
810.446	19502.75221
810.633	19583.91805
810.82	19295.80942
811.008	19204.5248
811.195	18967.2235
811.382	18742.14251
811.569	18965.19552
811.756	18734.0324
811.943	19088.90951
812.13	18979.39144
812.317	19307.98134
812.504	19168.01327
812.691	19559.5676
812.878	19561.59678
813.064	19113.24847
813.251	18961.13958
813.438	19042.26148
813.625	18997.64363
813.812	18955.05569
813.999	19080.79666
814.186	19046.31775
814.372	19153.8147
814.559	18863.8018
814.746	18910.44166
814.933	18910.44166
815.12	18995.6156
815.306	18977.36344
815.493	18882.05193
815.68	19161.92815
815.866	18865.82957
816.053	19190.32571
816.24	19117.30502
816.426	19024.00849
816.613	19003.72777
816.799	19101.07892
816.986	19121.36159
817.173	19338.41177
817.359	19285.66628
817.546	19161.92815
817.732	18845.55199
817.919	18841.49652
818.105	18865.82957
818.292	18804.99802
818.478	18723.89485
818.665	18650.90739
818.851	18703.62004
819.037	18681.31821
819.224	18654.96211
819.41	18756.33536
819.597	18405.62532
819.783	18650.90739
819.969	18567.78895
820.156	18361.0346
820.342	18671.18117
820.528	18896.2467
820.714	19190.32571
820.901	19032.12089
821.087	18975.33544
821.273	19017.92423
821.459	19028.06468
821.646	18969.25148
821.832	18944.91597
822.018	19028.06468
822.204	18046.92373
822.39	18851.63522
822.576	18604.27916
822.762	18667.12638
822.948	18263.75207
823.134	17965.87703
823.32	17913.1997
823.507	17848.36931
823.693	18030.71393
823.879	18095.5545
824.065	18032.74015
824.25	18318.47243
824.436	17909.1477
824.622	18061.10749
824.808	18063.13376
824.994	18209.03442
825.18	17953.72051
825.366	18450.21787
825.552	18221.19367
825.738	18539.40854
825.923	17978.03367
826.109	18359.00779
826.295	18123.92341
826.481	18117.8443
826.667	18188.76931
826.852	18115.81793
827.038	18073.26514
827.224	18014.50437
827.409	18170.53102
827.595	17969.92923
827.781	17589.08254
827.966	17613.38837
828.152	17281.2482
828.338	17487.81327
828.523	17125.3324
828.709	17518.19321
828.894	17275.17324
829.08	17368.32567
829.266	17538.44691
829.451	17623.51593
829.637	17131.40672
829.822	17048.39315
830.008	17157.72908
830.193	16945.13877
830.378	16825.69613
830.564	17254.92354
830.749	17186.07678
830.935	17072.68932
831.12	16617.19813
831.305	17007.9004
831.491	16856.06206
831.676	16985.62985
831.861	16601.00514
832.047	16971.45785
832.232	16568.6196
832.417	16937.04068
832.602	16813.54991
832.788	16773.06317
832.973	17044.34383
833.158	16845.94002
833.343	16673.87473
833.528	17076.73872
833.714	16894.52639
833.899	16839.86683
834.084	16823.67175
834.269	16880.35522
834.454	16313.60211
834.639	16716.38336
834.824	16248.84066
835.009	16511.94623
835.194	16536.23461
835.379	16777.1118
835.564	16445.15473
835.749	16718.40761
835.934	16617.19813
836.119	16358.1267
836.304	16084.92111
836.489	16224.55559
836.674	15904.82348
836.859	15868.40053
837.044	15910.89401
837.228	15941.24684
837.413	16291.34015
837.598	16267.05463
837.783	16101.11022
837.968	16133.48875
838.152	15773.29794
838.337	15965.52932
838.522	15799.60266
838.707	15678.19768
838.891	15309.95267
839.076	15682.24445
839.261	15382.79096
839.445	15566.91264
839.63	15376.72109
839.815	15388.86084
839.999	15451.58315
840.184	15769.25107
840.368	15475.86288
840.553	15740.92313
840.737	15825.90757
840.922	15728.78265
841.106	15781.39168
841.291	15570.95933
841.475	15407.0705
841.66	15332.20877
841.844	14850.66766
842.029	15186.53294
842.213	15287.69661
842.397	15113.69519
842.582	15016.57797
842.766	14779.85117
842.951	15042.8806
843.135	14731.29077
843.319	14506.69165
843.504	14452.05719
843.688	14725.22068
843.872	15016.57797
844.056	15012.53141
844.241	15121.78828
844.425	14990.2753
844.609	15063.11336
844.793	15208.78892
844.977	14682.72988
845.161	14733.31413
845.346	15071.20646
845.53	14990.2753
845.714	14802.10787
845.898	14138.39197
846.082	14532.99678
846.266	14245.65017
846.45	14178.86743
846.634	14195.05739
846.818	14767.71111
847.002	14512.76208
847.186	14504.66817
847.37	14371.11531
847.554	14553.23135
847.738	14261.83961
847.922	14395.39813
848.106	14332.66702
848.29	14545.13753
848.473	14518.8325
848.657	14249.69754
848.841	14300.28905
849.025	14259.81593
849.209	13583.77553
849.392	13879.32711
849.576	13678.9262
849.76	13749.77839
849.944	14039.22339
850.127	14045.29509
850.311	13772.04544
850.495	13735.60826
850.678	14037.19949
850.862	14263.86328
851.046	13936.00105
851.229	13573.65268
851.413	13340.80147
851.596	13496.71606
851.78	13547.33284
851.964	13614.14358
852.147	13109.92137
852.331	13194.98918
852.514	12984.32971
852.698	13144.35456
852.881	12856.6924
853.065	12868.84924
853.248	12953.94175
853.431	13478.49346
853.615	13205.11576
853.798	13464.32011
853.982	13330.67632
854.165	13435.97286
854.348	13626.29058
854.532	13344.85149
854.715	12962.04532
854.898	13041.05086
855.081	12972.17467
855.265	13251.69662
855.448	12889.11021
855.631	13205.11576
855.814	12982.30388
855.997	12783.74721
856.181	12643.91497
856.364	12905.3186
856.547	12891.13628
856.73	12929.63055
856.913	12891.13628
857.096	12872.90148
857.279	12449.31758
857.462	12566.89377
857.645	12370.24532
857.828	12595.27104
858.011	12406.74148
858.194	12526.35269
858.377	12045.73372
858.56	12260.74344
858.743	12157.30585
858.926	12301.30207
859.109	12295.21846
859.292	12412.82396
859.475	12248.57529
859.658	12216.12563
859.841	11702.75082
860.023	11881.37513
860.206	11690.56944
860.389	11830.63632
860.572	11635.74924
860.755	11911.81592
860.937	11923.99172
861.12	11871.22779
861.303	11651.99295
861.486	11739.29305
861.668	11757.5631
861.851	11704.78102
862.034	11519.99584
862.216	11676.35742
862.399	11524.05787
862.581	11741.32309
862.764	11597.16811
862.947	11883.40457
863.129	11505.77842
863.312	11587.01463
863.494	11505.77842
863.677	11597.16811
863.859	11454.9981
864.042	11649.96251
864.224	11282.29935
864.406	11196.93891
864.589	11054.63021
864.771	11353.4193
864.954	10877.68593
865.136	11009.89367
865.318	10912.26796
865.501	10623.30209
865.683	11137.9888
865.865	11015.99442
866.048	11034.29608
866.23	10751.53482
866.412	10946.8467
866.594	10922.43852
866.777	10843.10058
866.959	11286.36368
867.141	10957.01629
867.323	11038.363
867.505	10824.78933
867.687	10895.99448
867.869	10598.87131
868.052	10830.89319
868.234	10317.7859
868.416	10818.68537
868.598	10238.30344
868.78	10513.34941
868.962	10590.72731
869.144	10822.75469
869.326	10680.30036
869.508	10584.61919
869.69	10684.3713
869.872	10952.94849
870.054	10543.89549
870.236	10637.55256
870.417	10810.54659
870.599	10865.47972
870.781	10631.44529
870.963	10168.99419
871.145	10262.76177
871.327	10450.21177
871.508	10468.54332
871.69	10651.80242
871.872	10454.28554
872.054	10784.09427
872.235	10488.91049
872.417	10374.83769
872.599	10199.57375
872.78	10554.07688
872.962	10303.52132
873.144	10089.4727
873.325	9916.08188
873.507	9832.40872
873.689	9950.76838
873.87	10026.24805
874.052	10026.24805
874.233	10395.21082
874.415	10026.24805
874.596	10531.6774
874.778	9997.69049
874.959	10081.31545
875.141	9787.50061
875.322	10109.86485
875.503	9928.32465
875.685	10026.24805
875.866	9824.24415
876.048	10134.33358
876.229	10152.68381
876.41	10256.64737
876.592	10507.23985
876.773	10419.65686
876.954	10095.59049
877.136	10468.54332
877.317	9989.53067
877.498	10221.99681
877.679	9814.0381
877.86	9960.96949
878.042	10026.24805
878.223	10472.61686
878.404	9942.60723
878.585	10014.00944
878.766	10026.24805
878.947	10211.80472
879.128	9869.14634
879.309	10101.70816
879.49	9950.76838
879.672	10124.13852
879.853	9867.10548
880.034	10250.53285
880.215	10452.24866
880.396	10111.90399
880.576	10148.60608
880.757	10419.65686
880.938	10191.41951
881.119	10393.17357
881.3	10022.16857
881.481	10639.58829
881.662	10358.53823
881.843	10452.24866
882.023	10295.36984
882.204	10435.95317
882.385	10001.77032
882.566	10309.63479
882.747	10065.00026
882.927	10562.22178
883.108	10083.35478
883.289	10203.6508
883.469	10105.78653
883.65	10201.61228
883.831	9916.08188
884.011	10189.38091
884.192	10083.35478
884.373	10219.95842
884.553	10113.94311
884.734	10470.58009
884.914	10162.8779
885.095	10503.16675
885.275	10056.84233
885.456	10111.90399
885.636	10181.22639
885.817	10586.65524
885.997	10130.2556
886.178	10492.98377
886.358	10081.31545
886.538	10462.43292
886.719	10036.4465
886.899	10350.38819
887.08	10403.35971
887.26	10293.33194
887.44	10274.9902
887.621	10619.23042
887.801	10313.71037
887.981	10668.08725
888.161	10342.23794
888.342	10387.06173
888.522	10189.38091
888.702	10641.62401
888.882	10552.04063
889.062	10517.42238
889.242	10446.13795
889.423	10317.7859
889.603	10042.5654
889.783	10531.6774
889.963	10140.45045
890.143	10633.48106
890.323	10317.7859
890.503	10258.68551
890.683	10268.87604
890.863	10236.26516
891.043	10130.2556
891.223	10350.38819
891.403	10168.99419
891.583	10499.0936
891.763	9979.33058
891.943	10228.1119
892.122	10007.88994
892.302	10118.02132
892.482	10111.90399
892.662	10142.48938
892.842	9885.47263
893.022	10089.4727
893.201	9773.21014
893.381	10032.36716
893.561	9691.53605
893.741	9783.4177
893.92	9566.93555
894.1	9852.8191
894.28	9993.61061
894.459	9856.901
894.639	9779.33472
894.819	9979.33058
894.998	9930.36507
895.178	9844.65513
895.357	10101.70816
895.537	10319.82364
895.716	10336.12511
895.896	10097.62973
896.075	10034.40684
896.255	9944.64754
896.434	10075.19736
896.614	10203.6508
896.793	9883.43189
896.973	9905.87916
897.152	9664.98669
897.331	10009.92979
897.511	9885.47263
897.69	10001.77032
897.87	9519.93988
898.049	9805.87299
898.228	9630.26436
898.407	9828.32646
898.587	9677.24057
898.766	9820.16177
898.945	9297.10533
899.124	9403.43586
899.304	9274.60661
899.483	9280.74282
899.662	9217.32798
899.841	9462.71637
900.02	9135.47838
900.199	9446.36449
900.378	9069.97898
900.557	9174.36033
900.737	8916.39485
900.916	9000.36642
901.095	8781.15806
901.274	8856.98228
901.453	8695.0571
901.632	8986.03191
901.811	8818.04861
901.989	8762.71057
902.168	8496.07971
902.347	9004.46183
902.526	8645.84197
902.705	8719.66068
902.884	8914.34639
903.063	9256.19706
903.242	8996.27093
903.42	8951.21593
903.599	8746.31157
903.778	8893.86082
903.957	8824.19647
904.135	8945.07141
904.314	8576.10216
904.493	8699.15788
904.672	8413.97534
904.85	8746.31157
905.029	8678.65324
905.207	8586.35937
905.386	8697.1075
905.565	8483.76601
905.743	8325.67875
905.922	8446.82076
906.1	8574.05066
906.279	8703.25859
906.457	8292.81502
906.636	8561.74127
906.814	8216.79839
906.993	8183.91796
907.171	8177.75231
907.35	8138.69904
907.528	8002.98396
907.707	8309.24751
907.885	8013.26849
908.063	8165.42047
908.242	8124.30917
908.42	8109.91833
908.598	7945.38115
908.777	8124.30917
908.955	7844.5375
909.133	7918.63154
909.311	7646.82128
909.49	7506.65423
909.668	7657.12379
909.846	7692.14837
910.024	7374.64139
910.202	7865.12187
910.38	7624.15389
910.559	7657.12379
910.737	7500.46811
910.915	7523.14961
911.093	7574.68882
911.271	7848.65454
911.449	7552.01322
911.627	7729.22656
911.805	7395.27426
911.983	7589.1174
912.161	7407.65293
912.339	7500.46811
912.517	7093.81622
912.695	7477.784
912.872	6895.33847
913.05	7207.43445
913.228	6938.77323
913.406	7069.01782
913.584	6891.20131
913.762	6820.85561
913.939	6841.54825
914.117	6891.20131
914.295	6820.85561
914.473	6853.96274
914.65	6779.46349
914.828	6936.70514
915.006	6704.93463
915.184	6880.858
915.361	6574.43749
915.539	6860.16968
915.716	6450.06923
915.894	6804.29985
916.072	6603.44476
916.249	6593.08554
916.427	6576.50959
916.604	6750.48357
916.782	6396.15036
916.959	6671.80115
917.137	6605.51653
917.314	6686.29777
917.492	6447.99572
917.669	6549.57051
917.847	6313.16748
918.024	6472.87633
918.201	6265.4354
918.379	6286.19
918.556	6265.4354
918.733	6199.00494
918.911	5949.67647
919.088	6082.69381
919.265	5839.4484
919.442	5887.29136
919.62	5629.20759
919.797	6074.38305
919.974	5949.67647
920.151	6022.43228
920.328	5787.43101
920.506	6049.44852
920.683	5758.29484
920.86	5733.31729
921.037	5589.63045
921.214	5600.04631
921.391	5485.43941
921.568	5616.71047
921.745	5429.15177
921.922	5685.43416
922.099	5399.95885
922.276	5481.27054
922.453	5318.61144
922.63	5662.52912
922.807	5153.72173
922.984	5387.44618
923.161	5143.28077
923.338	5374.93268
923.514	4932.24947
923.691	5287.31448
923.868	5185.0411
924.045	5082.71178
924.222	5061.8214
924.399	5101.51115
924.575	5099.42242
924.752	5099.42242
924.929	4723.07686
925.105	5038.83931
925.282	4685.40169
925.459	4992.86673
925.635	4714.70524
925.812	4844.42474
925.989	4599.55885
926.165	4840.2416
926.342	4505.29793
926.518	4693.77459
926.695	4517.86865
926.871	4484.34497
927.048	4236.93523
927.224	4222.24895
927.401	3871.57308
927.577	4069.03043
927.754	3995.53013
927.93	4457.10283
928.107	3989.22894
928.283	4297.76723
928.459	4035.43343
928.636	4253.71827
928.812	3888.38493
928.988	4226.44514
929.165	4066.93077
929.341	4186.57795
929.517	3808.51731
929.693	3852.65822
929.87	3671.83603
930.046	3875.77616
930.222	3682.35287
930.398	3703.38511
930.574	3711.79747
930.751	3728.62127
930.927	3568.74598
931.103	3819.02784
931.279	3572.95462
931.455	3716.00354
931.631	3396.12891
931.807	3701.28197
931.983	3286.60258
932.159	3484.55774
932.335	3408.76352
932.511	3511.92213
932.687	3238.14347
932.863	3415.08059
933.039	3164.38443
933.215	3297.13598
933.391	3118.01137
933.566	3058.97997
933.742	2877.59428
933.918	2900.80087
934.094	2776.30915
934.27	2926.11516
934.445	2862.82554
934.621	2945.0995
934.797	2636.99152
934.973	2687.659
935.148	2368.76263
935.324	2725.65477
935.5	2577.87041
935.675	2535.63529
935.851	2353.97326
936.027	2235.64127
936.202	2064.43431
936.378	2195.48643
936.553	1948.15526
936.729	2049.63629
936.904	1969.29835
937.08	1842.43143
937.255	1658.44552
937.431	1713.43262
937.606	1463.86487
937.782	1658.44552
937.957	1410.9886
938.133	1444.8294
938.308	1383.49304
938.483	1461.74982
938.659	1235.44426
938.834	1284.08777
939.009	1085.29528
939.185	1171.9986
939.36	996.48615
939.535	856.95276
939.71	875.97805
939.886	1023.97359
940.061	812.56317
940.236	916.14472
940.411	687.87252
940.586	892.88998
940.761	717.45683
940.937	848.4973
941.112	810.44948
941.287	755.4969
941.462	673.0812
941.637	768.17767
941.812	611.80904
941.987	755.4969
942.162	643.50026
942.337	622.37247
942.512	607.58375
942.687	609.69639
942.862	550.54751
943.037	548.43524
943.212	491.40936
943.386	668.85521
943.561	442.8402
943.736	501.96892
943.911	497.74505
944.086	535.76193
944.26	501.96892
944.435	525.20123
944.61	381.61266
944.785	455.50964
944.959	459.73291
945.134	491.40936
945.309	371.05758
945.483	516.75291
945.658	442.8402
945.833	514.64087
946.007	455.50964
946.182	447.06329
946.357	425.9485
946.531	539.98631
946.706	510.41683
946.88	480.85017
947.055	550.54751
947.229	501.96892
947.404	599.13334
947.578	618.14706
947.752	461.84457
947.927	620.25976
948.101	493.52124
948.276	607.58375
948.45	523.08913
948.624	611.80904
948.799	480.85017
948.973	620.25976
949.147	651.95172
949.321	607.58375
949.496	497.74505
949.67	539.98631
949.844	489.29749
950.018	605.47113
950.193	516.75291
950.367	548.43524
950.541	556.88439
950.715	578.0082
950.889	611.80904
951.063	643.50026
951.237	573.78333
951.411	616.03437
951.585	626.59793
951.759	744.92987
951.933	556.88439
952.107	675.19421
952.281	592.79566
952.455	666.74223
952.629	510.41683
952.803	713.23036
952.977	548.43524
953.151	586.4581
953.325	527.31334
953.499	725.90988
953.672	658.29044
953.846	704.77757
954.02	546.32299
954.194	649.83884
954.368	491.40936
954.541	668.85521
954.715	514.64087
954.889	632.93621
955.062	643.50026
955.236	630.82344
955.41	689.98561
955.583	706.89075
955.757	618.14706
955.93	732.24978
956.104	556.88439
956.278	643.50026
956.451	565.33375
956.625	548.43524
956.798	597.02077
956.972	597.02077
957.145	575.89576
957.319	582.23313
957.492	601.24592
957.665	664.62926
957.839	620.25976
958.012	683.64637
958.185	438.61718
958.359	567.44613
958.532	548.43524
958.705	620.25976
958.879	510.41683
959.052	599.13334
959.225	599.13334
959.398	668.85521
959.572	425.9485
959.745	565.33375
959.918	468.17963
960.091	624.48519
960.264	463.95624
960.438	616.03437
960.611	453.39803
960.784	542.09852
960.957	594.90821
961.13	618.14706
961.303	493.52124
961.476	573.78333
961.649	510.41683
961.822	563.22139
961.995	533.64976
962.168	651.95172
962.341	459.73291
962.514	550.54751
962.686	413.28038
962.859	514.64087
963.032	375.27956
963.205	480.85017
963.378	480.85017
963.551	455.50964
963.723	398.50165
963.896	457.62127
964.069	428.0599
964.242	476.6266
964.414	428.0599
964.587	470.29135
964.76	330.95217
964.932	444.95174
965.105	417.50302
965.278	506.19285
965.45	349.94869
965.623	430.17133
965.795	417.50302
965.968	423.8371
966.14	472.40309
966.313	432.28277
966.485	466.06793
966.658	430.17133
966.83	482.96198
967.003	463.95624
967.175	356.28118
967.348	438.61718
967.52	451.28643
967.692	556.88439
967.865	406.94654
968.037	561.10904
968.209	371.05758
968.382	400.61285
968.554	396.39047
968.726	472.40309
968.898	400.61285
969.071	396.39047
969.243	390.05702
969.415	377.39057
969.587	337.28419
969.759	442.8402
969.932	377.39057
970.104	284.52232
970.276	404.83529
970.448	434.39422
970.62	307.73615
970.792	328.84154
970.964	257.09068
971.136	362.61382
971.308	362.61382
971.48	295.07378
971.652	280.30186
971.824	320.39917
971.996	233.8818
972.168	265.53084
972.339	252.87071
972.511	409.05781
972.683	212.78487
972.855	345.72712
973.027	280.30186
973.199	356.28118
973.37	244.431
973.542	364.72473
973.714	295.07378
973.886	299.2945
974.057	299.2945
974.229	244.431
974.401	250.76076
974.572	191.68993
974.744	170.59702
974.915	280.30186
975.087	202.23715
975.259	358.39204
975.43	286.63257
975.602	246.5409
975.773	271.86117
975.945	212.78487
976.116	254.98069
976.288	276.08147
976.459	244.431
976.63	263.42077
976.802	204.34665
976.973	223.33309
977.145	227.55252
977.316	219.11374
977.487	107.33087
977.659	297.18413
977.83	160.05133
978.001	193.79933
978.172	235.99161
978.344	198.0182
978.515	195.90876
978.686	223.33309
978.857	136.85268
979.028	219.11374
979.2	210.67529
979.371	248.65082
979.542	174.81543
979.713	217.0041
979.884	278.19166
980.055	202.23715
980.226	208.56572
980.397	84.13817
980.568	164.26954
980.739	202.23715
980.91	189.58055
981.081	206.45618
981.252	212.78487
981.423	212.78487
981.594	168.48784
981.765	195.90876
981.936	219.11374
982.106	240.21127
982.277	151.61516
982.448	134.74384
982.619	193.79933
982.79	128.41744
982.96	185.36184
983.131	214.89448
983.302	162.16043
983.472	183.25252
983.643	94.67998
983.814	122.09124
983.984	141.07043
984.155	141.07043
984.326	101.00532
984.496	132.63502
984.667	225.4428
984.837	166.37868
985.008	162.16043
985.178	119.98255
985.349	122.09124
985.519	86.24649
985.69	86.24649
985.86	111.54801
986.031	130.52622
986.201	168.48784
986.371	60.94819
986.542	141.07043
986.712	109.43943
986.882	41.97663
987.053	103.11382
987.223	60.94819
987.393	77.81336
987.563	71.48875
987.734	103.11382
987.904	126.30869
988.074	92.57157
988.244	101.00532
988.414	111.54801
988.585	149.50617
988.755	16.68414
988.925	136.85268
989.095	143.17933
989.265	84.13817
989.435	88.35483
989.605	155.83321
989.775	77.81336
989.945	37.76098
990.115	-0.17561
990.285	90.46319
990.455	103.11382
990.625	20.89932
990.795	41.97663
990.965	126.30869
991.134	58.84015
991.304	10.36155
991.474	170.59702
991.644	25.11459
991.814	160.05133
991.984	50.4082
992.153	115.76524
992.323	94.67998
992.493	109.43943
992.662	58.84015
992.832	60.94819
993.002	128.41744
993.171	69.38059
993.341	4.03918
993.511	103.11382
993.68	23.00695
993.85	50.4082
994.019	16.68414
994.189	98.89685
994.358	103.11382
994.528	41.97663
994.697	12.46906
994.867	60.94819
995.036	92.57157
995.206	88.35483
995.375	58.84015
995.544	10.36155
995.714	73.59693
995.883	54.62413
996.052	25.11459
996.222	60.94819
996.391	52.51615
996.56	58.84015
996.73	58.84015
996.899	25.11459
997.068	67.27246
997.237	8.25407
997.406	52.51615
997.576	35.65319
997.745	113.65661
997.914	35.65319
998.083	79.92161
998.252	8.25407
998.421	41.97663
998.59	63.05626
998.759	46.19237
998.928	-0.17561
999.097	18.79172
999.266	1.93177
999.435	29.32996
999.604	8.25407
999.773	90.46319
999.942	71.48875
1000.111	92.57157
1000.28	52.51615
1000.448	-0.17561
1000.617	-17.03383
1000.786	33.54542
1000.955	109.43943
1001.124	-4.39031
1001.292	113.65661
1001.461	33.54542
1001.63	69.38059
1001.798	20.89932
1001.967	-21.24814
1002.136	77.81336
1002.304	73.59693
1002.473	8.25407
1002.642	-4.39031
1002.81	33.54542
1002.979	16.68414
1003.147	-0.17561
1003.316	-82.34441
1003.484	18.79172
1003.653	-6.49763
1003.821	52.51615
1003.99	-12.81942
1004.158	-54.95905
1004.327	65.16435
1004.495	23.00695
1004.663	-0.17561
1004.832	94.67998
1005	41.97663
1005.168	8.25407
1005.337	63.05626
1005.505	-31.78348
1005.673	27.22227
1005.842	14.57659
1006.01	92.57157
1006.178	48.30027
1006.346	75.70514
1006.514	-21.24814
1006.683	-17.03383
1006.851	12.46906
1007.019	67.27246
1007.187	-6.49763
1007.355	69.38059
1007.523	-21.24814
1007.691	77.81336
1007.859	10.36155
1008.027	63.05626
1008.195	-4.39031
1008.363	20.89932
1008.531	16.68414
1008.699	-42.31821
1008.867	60.94819
1009.035	29.32996
1009.203	41.97663
1009.37	33.54542
1009.538	50.4082
1009.706	-21.24814
1009.874	58.84015
1010.042	-0.17561
1010.209	-29.67646
1010.377	4.03918
1010.545	-42.31821
1010.713	-17.03383
1010.88	4.03918
1011.048	67.27246
1011.216	8.25407
1011.383	-73.91861
1011.551	37.76098
1011.718	-71.81209
1011.886	16.68414
1012.054	65.16435
1012.221	29.32996
1012.389	-33.89048
1012.556	-12.81942
1012.724	25.11459
1012.891	37.76098
1013.058	46.19237
1013.226	14.57659
1013.393	-17.03383
1013.561	-54.95905
1013.728	-21.24814
1013.895	12.46906
1014.063	33.54542
1014.23	-12.81942
1014.397	-25.46235
1014.565	14.57659
1014.732	-4.39031
1014.899	-4.39031
1015.066	-17.03383
1015.233	-0.17561
1015.401	-25.46235
1015.568	20.89932
1015.735	33.54542
1015.902	37.76098
1016.069	37.76098
1016.236	-67.59898
1016.403	-12.81942
1016.57	-33.89048
1016.737	-23.35526
1016.904	-44.42508
1017.071	58.84015
1017.238	8.25407
1017.405	29.32996
1017.572	-50.74553
1017.739	16.68414
1017.906	-25.46235
1018.073	-17.03383
1018.24	56.73213
1018.407	-12.81942
1018.573	33.54542
1018.74	-21.24814
1018.907	69.38059
1019.074	12.46906
1019.241	10.36155
1019.407	-4.39031
1019.574	-71.81209
1019.741	8.25407
1019.907	-12.81942
1020.074	-33.89048
1020.241	18.79172
1020.407	35.65319
1020.574	-23.35526
1020.74	-4.39031
1020.907	6.14661
1021.073	20.89932
1021.24	-6.49763
1021.406	25.11459
1021.573	1.93177
1021.739	-10.71218
1021.906	-12.81942
1022.072	-17.03383
1022.239	31.43768
1022.405	25.11459
1022.571	50.4082
1022.738	-42.31821
1022.904	18.79172
1023.07	50.4082
1023.237	10.36155
1023.403	1.93177
1023.569	-10.71218
1023.735	-17.03383
1023.902	8.25407
1024.068	50.4082
1024.234	-17.03383
1024.4	48.30027
1024.566	-0.17561
1024.732	-33.89048
1024.898	-48.63874
1025.065	35.65319
1025.231	25.11459
1025.397	-17.03383
1025.563	-6.49763
1025.729	-8.60492
1025.895	8.25407
1026.061	-8.60492
1026.227	4.03918
1026.392	25.11459
1026.558	88.35483
1026.724	-109.72541
1026.89	48.30027
1027.056	25.11459
1027.222	-80.238
1027.388	4.03918
1027.553	-12.81942
1027.719	-92.87609
1027.885	52.51615
1028.051	37.76098
1028.216	27.22227
1028.382	25.11459
1028.548	16.68414
1028.713	69.38059
1028.879	35.65319
1029.045	8.25407
1029.21	16.68414
1029.376	20.89932
1029.541	8.25407
1029.707	16.68414
1029.873	-38.10439
1030.038	37.76098
1030.204	10.36155
1030.369	-17.03383
1030.534	-59.17246
1030.7	1.93177
1030.865	-29.67646
1031.031	-25.46235
1031.196	-23.35526
1031.361	58.84015
1031.527	-8.60492
1031.692	84.13817
1031.857	-92.87609
1032.023	-14.92664
1032.188	-17.03383
1032.353	-6.49763
1032.518	-84.4508
1032.684	12.46906
1032.849	37.76098
1033.014	16.68414
1033.179	-17.03383
1033.344	18.79172
1033.509	-48.63874
1033.674	41.97663
1033.839	-101.30096
1034.004	-59.17246
1034.17	-6.49763
1034.335	4.03918
1034.5	-19.141
1034.664	-38.10439
1034.829	-44.42508
1034.994	73.59693
1035.159	69.38059
1035.324	-12.81942
1035.489	-25.46235
1035.654	-17.03383
1035.819	-42.31821
1035.984	16.68414
1036.148	20.89932
1036.313	20.89932
1036.478	25.11459
1036.643	-0.17561
1036.807	-2.28298
1036.972	8.25407
1037.137	52.51615
1037.301	-42.31821
1037.466	-21.24814
1037.631	-42.31821
1037.795	4.03918
1037.96	12.46906
1038.124	25.11459
1038.289	4.03918
1038.454	-101.30096
1038.618	-27.56942
1038.783	-67.59898
1038.947	-21.24814
1039.111	-17.03383
1039.276	-17.03383
1039.44	35.65319
1039.605	41.97663
1039.769	-63.38577
1039.933	-0.17561
1040.098	-33.89048
1040.262	90.46319
1040.426	-27.56942
1040.591	-23.35526
1040.755	-46.53192
1040.919	4.03918
1041.083	-17.03383
1041.248	16.68414
1041.412	-52.8523
1041.576	-17.03383
1041.74	27.22227
1041.904	4.03918
1042.068	-17.03383
1042.232	20.89932
1042.397	-76.0251
1042.561	69.38059
1042.725	60.94819
1042.889	-14.92664
1043.053	-23.35526
1043.217	-33.89048
1043.381	46.19237
1043.544	37.76098
1043.708	20.89932
1043.872	4.03918
1044.036	-14.92664
1044.2	-31.78348
1044.364	14.57659
1044.528	-33.89048
1044.691	-2.28298
1044.855	-4.39031
1045.019	33.54542
1045.183	-38.10439
1045.346	29.32996
1045.51	25.11459
1045.674	35.65319
1045.837	58.84015
1046.001	-33.89048
1046.165	1.93177
1046.328	-44.42508
1046.492	75.70514
1046.655	-42.31821
1046.819	-63.38577
1046.983	-10.71218
1047.146	-4.39031
1047.31	41.97663
1047.473	8.25407
1047.636	-33.89048
1047.8	16.68414
1047.963	-0.17561
1048.127	12.46906
1048.29	-10.71218
