Data from mixed_try1_USB4F045381__0__00022.txt Node

Date: Thu Apr 03 19:31:57 EDT 2025
User: mmckonesweet
Spectrometer: USB4F04538
Trigger mode: 4
Integration Time (sec): 2.700000E-3
Scans to average: 1
Electric dark correction enabled: true
Nonlinearity correction enabled: true
Boxcar width: 0
XAxis mode: Wavelengths
Number of Pixels in Spectrum: 3648
>>>>>Begin Spectral Data<<<<<
345.52	7.20034
345.736	7.20034
345.952	7.20034
346.168	62.00222
346.384	-1.2293
346.6	34.5993
346.816	17.73793
347.032	-20.19457
347.248	-7.55127
347.464	-9.65855
347.68	7.20034
347.896	-32.83698
348.112	43.03055
348.328	-41.26476
348.544	-5.44397
348.76	28.27611
348.975	-13.87303
349.191	-15.98024
349.407	-15.98024
349.623	-43.37164
349.839	-41.26476
350.055	-51.79892
350.27	-5.44397
350.486	-1.2293
350.702	-24.40881
350.918	-24.40881
351.133	-22.3017
351.349	11.4153
351.565	40.92271
351.781	-7.55127
351.996	0.87808
352.212	-72.86535
352.428	-1.2293
352.644	0.87808
352.859	-18.08741
353.075	-30.72997
353.291	9.30781
353.506	-15.98024
353.722	26.16843
353.938	34.5993
354.153	2.98547
354.369	0.87808
354.584	28.27611
354.8	-1.2293
355.016	-1.2293
355.231	-39.15785
355.447	15.63036
355.662	-56.01241
355.878	-41.26476
356.093	-32.83698
356.309	2.98547
356.524	64.1103
356.74	-13.87303
356.955	-22.3017
357.171	-32.83698
357.386	-56.01241
357.602	-77.07833
357.817	-41.26476
358.033	19.84552
358.248	-45.4785
358.464	-74.97185
358.679	-20.19457
358.895	-60.2258
359.11	-1.2293
359.325	49.35423
359.541	-18.08741
359.756	-43.37164
359.972	9.30781
360.187	9.30781
360.402	7.20034
360.618	38.81488
360.833	7.20034
361.048	-3.33665
361.264	43.03055
361.479	-1.2293
361.694	-110.77844
361.909	0.87808
362.125	-15.98024
362.34	-56.01241
362.555	-56.01241
362.77	-7.55127
362.986	-9.65855
363.201	-24.40881
363.416	-34.94396
363.631	68.32652
363.847	24.06077
364.062	7.20034
364.277	-7.55127
364.492	-20.19457
364.707	-9.65855
364.922	-28.62294
365.138	-1.2293
365.353	-30.72997
365.568	-15.98024
365.783	-60.2258
365.998	-11.7658
366.213	-9.65855
366.428	-64.43909
366.643	28.27611
366.858	19.84552
367.073	-60.2258
367.288	-24.40881
367.503	59.89417
367.718	-34.94396
367.933	-18.08741
368.148	-58.11912
368.363	-32.83698
368.578	28.27611
368.793	26.16843
369.008	5.09289
369.223	0.87808
369.438	17.73793
369.653	7.20034
369.868	-9.65855
370.083	15.63036
370.298	28.27611
370.513	-13.87303
370.728	-58.11912
370.943	-51.79892
371.157	72.54284
371.372	24.06077
371.587	-34.94396
371.802	32.49155
372.017	-39.15785
372.232	-15.98024
372.446	26.16843
372.661	15.63036
372.876	-34.94396
373.091	-24.40881
373.306	-1.2293
373.52	-15.98024
373.735	74.65103
373.95	5.09289
374.165	-13.87303
374.379	26.16843
374.594	-39.15785
374.809	-37.05092
375.023	-20.19457
375.238	51.46218
375.453	24.06077
375.667	-39.15785
375.882	-7.55127
376.097	-41.26476
376.311	13.52282
376.526	108.38515
376.741	-45.4785
376.955	-51.79892
377.17	-30.72997
377.384	-43.37164
377.599	17.73793
377.813	-26.51589
378.028	26.16843
378.242	17.73793
378.457	-15.98024
378.672	24.06077
378.886	-53.90568
379.101	-26.51589
379.315	-56.01241
379.53	-18.08741
379.744	-18.08741
379.958	-15.98024
380.173	24.06077
380.387	43.03055
380.602	66.2184
380.816	-81.29121
381.031	-24.40881
381.245	28.27611
381.459	13.52282
381.674	30.38382
381.888	-37.05092
382.103	43.03055
382.317	-56.01241
382.531	43.03055
382.746	-1.2293
382.96	32.49155
383.174	83.08402
383.388	-15.98024
383.603	53.57014
383.817	5.09289
384.031	15.63036
384.246	28.27611
384.46	-26.51589
384.674	0.87808
384.888	-51.79892
385.103	-7.55127
385.317	-5.44397
385.531	55.67812
385.745	-5.44397
385.959	85.19233
386.174	-13.87303
386.388	-34.94396
386.602	-3.33665
386.816	-3.33665
387.03	9.30781
387.244	85.19233
387.458	0.87808
387.672	57.78613
387.887	-20.19457
388.101	24.06077
388.315	-47.58533
388.529	-41.26476
388.743	-30.72997
388.957	-60.2258
389.171	24.06077
389.385	-32.83698
389.599	9.30781
389.813	5.09289
390.027	30.38382
390.241	-24.40881
390.455	34.5993
390.669	30.38382
390.883	-89.71665
391.097	19.84552
391.311	-26.51589
391.525	11.4153
391.738	-18.08741
391.952	51.46218
392.166	5.09289
392.38	91.51738
392.594	57.78613
392.808	9.30781
393.022	9.30781
393.236	2.98547
393.449	-1.2293
393.663	-26.51589
393.877	7.20034
394.091	-15.98024
394.305	-26.51589
394.518	19.84552
394.732	0.87808
394.946	-26.51589
395.16	19.84552
395.373	49.35423
395.587	24.06077
395.801	59.89417
396.015	28.27611
396.228	-18.08741
396.442	40.92271
396.656	-32.83698
396.869	-43.37164
397.083	-9.65855
397.297	-18.08741
397.51	-3.33665
397.724	7.20034
397.938	-1.2293
398.151	45.13842
398.365	-22.3017
398.578	-32.83698
398.792	-74.97185
399.005	85.19233
399.219	-22.3017
399.433	-7.55127
399.646	-5.44397
399.86	0.87808
400.073	70.43467
400.287	-7.55127
400.5	-49.69214
400.714	-5.44397
400.927	-13.87303
401.141	38.81488
401.354	28.27611
401.567	11.4153
401.781	15.63036
401.994	-15.98024
402.208	-1.2293
402.421	21.95313
402.635	-26.51589
402.848	-1.2293
403.061	-5.44397
403.275	49.35423
403.488	-74.97185
403.701	34.5993
403.915	7.20034
404.128	91.51738
404.341	17.73793
404.555	32.49155
404.768	-18.08741
404.981	36.70708
405.195	-32.83698
405.408	24.06077
405.621	-7.55127
405.834	104.16807
406.048	19.84552
406.261	0.87808
406.474	43.03055
406.687	15.63036
406.9	36.70708
407.114	80.97574
407.327	45.13842
407.54	-9.65855
407.753	59.89417
407.966	-7.55127
408.179	19.84552
408.392	47.24632
408.605	2.98547
408.819	-9.65855
409.032	45.13842
409.245	2.98547
409.458	24.06077
409.671	51.46218
409.884	40.92271
410.097	91.51738
410.31	36.70708
410.523	-22.3017
410.736	74.65103
410.949	-5.44397
411.162	-39.15785
411.375	89.40901
411.588	-68.65227
411.801	121.0369
412.014	43.03055
412.227	-5.44397
412.44	40.92271
412.653	-70.75882
412.865	-47.58533
413.078	2.98547
413.291	43.03055
413.504	-1.2293
413.717	26.16843
413.93	51.46218
414.143	15.63036
414.356	59.89417
414.568	15.63036
414.781	87.30066
414.994	15.63036
415.207	-34.94396
415.42	28.27611
415.632	26.16843
415.845	40.92271
416.058	-1.2293
416.271	-24.40881
416.483	83.08402
416.696	70.43467
416.909	99.95108
417.121	43.03055
417.334	53.57014
417.547	45.13842
417.759	99.95108
417.972	85.19233
418.185	85.19233
418.397	24.06077
418.61	74.65103
418.823	15.63036
419.035	19.84552
419.248	108.38515
419.46	49.35423
419.673	53.57014
419.885	118.92822
420.098	34.5993
420.311	49.35423
420.523	74.65103
420.736	62.00222
420.948	55.67812
421.161	116.81956
421.373	78.86748
421.586	87.30066
421.798	32.49155
422.01	57.78613
422.223	91.51738
422.435	49.35423
422.648	62.00222
422.86	87.30066
423.073	85.19233
423.285	83.08402
423.497	118.92822
423.71	99.95108
423.922	74.65103
424.134	17.73793
424.347	59.89417
424.559	177.9793
424.771	59.89417
424.984	83.08402
425.196	32.49155
425.408	70.43467
425.621	40.92271
425.833	68.32652
426.045	140.01598
426.257	64.1103
426.47	108.38515
426.682	125.25432
426.894	93.62577
427.106	108.38515
427.318	45.13842
427.531	91.51738
427.743	121.0369
427.955	135.79826
428.167	152.66967
428.379	91.51738
428.591	49.35423
428.804	93.62577
429.016	116.81956
429.228	146.34273
429.44	83.08402
429.652	175.87005
429.864	114.71092
430.076	192.74463
430.288	144.23379
430.5	70.43467
430.712	112.60231
430.924	201.1824
431.136	135.79826
431.348	125.25432
431.56	237.04651
431.772	194.85404
431.984	184.30718
432.196	142.12488
432.408	99.95108
432.62	175.87005
432.832	177.9793
433.044	213.83967
433.256	158.99679
433.468	74.65103
433.679	112.60231
433.891	241.26619
434.103	148.45169
434.315	205.40141
434.527	281.35697
434.739	222.27825
434.95	294.01862
435.162	256.03568
435.374	201.1824
435.586	279.24676
435.798	211.73008
436.009	234.9367
436.221	245.48595
436.433	230.71714
436.645	171.65161
436.856	412.22473
437.068	234.9367
437.28	336.22884
437.491	281.35697
437.703	260.25571
437.915	289.79799
438.126	332.0075
438.338	281.35697
438.55	310.90184
438.761	323.56502
438.973	334.11816
439.184	357.33661
439.396	397.44606
439.608	222.27825
439.819	327.78622
440.031	279.24676
440.242	344.67174
440.454	363.66927
440.665	332.0075
440.877	420.67004
441.088	378.44609
441.3	370.00209
441.511	397.44606
441.723	380.55713
441.934	296.12896
442.146	401.66845
442.357	462.9004
442.569	302.46008
442.78	446.00751
442.991	439.67293
443.203	477.68249
443.414	399.55725
443.626	412.22473
443.837	513.58486
444.048	446.00751
444.26	422.78141
444.471	471.34722
444.682	475.57071
444.894	462.9004
445.105	437.56144
445.316	534.70585
445.528	471.34722
445.739	424.8928
445.95	481.90607
446.161	522.03308
446.373	494.57719
446.584	505.13686
446.795	536.81802
447.006	600.18963
447.217	505.13686
447.429	519.921
447.64	589.62687
447.851	581.17689
448.062	513.58486
448.273	543.15464
448.484	610.75271
448.695	661.45984
448.907	532.59368
449.118	657.23398
449.329	538.93021
449.54	602.30222
449.751	484.01789
449.962	684.7029
450.173	674.1377
450.384	657.23398
450.595	750.21336
450.806	743.87318
451.017	581.17689
451.228	720.6267
451.439	716.40021
451.65	699.49467
451.861	724.85324
452.072	809.39263
452.283	796.71072
452.494	792.48349
452.705	729.07982
452.915	767.12093
453.126	885.49095
453.337	819.96116
453.548	896.06103
453.759	915.08767
453.97	921.43002
454.181	906.63131
454.391	1039.83219
454.602	974.28554
454.813	1020.80191
455.024	1080.00875
455.235	938.3433
455.445	946.80011
455.656	961.59981
455.867	1103.26973
456.078	896.06103
456.288	1071.55036
456.499	1139.21965
456.71	1139.21965
456.921	1075.77955
457.131	1405.70098
457.342	1118.07247
457.553	1139.21965
457.763	1088.46722
457.974	1388.78064
458.184	1240.73153
458.395	1395.12576
458.606	1217.46769
458.816	1431.08156
459.027	1488.18795
459.237	1587.59425
459.448	1585.47925
459.659	1477.6127
459.869	1519.91361
460.08	1513.56849
460.29	1663.73283
460.501	1771.58965
460.711	1655.27313
460.922	1663.73283
461.132	1703.91577
461.343	1735.63835
461.553	1655.27313
461.764	1906.92457
461.974	1826.57176
462.184	1858.29083
462.395	1985.15526
462.605	2046.46523
462.816	1881.55079
463.026	2052.80732
463.236	2139.47591
463.447	2111.997
463.657	2027.4386
463.867	2283.18892
464.078	2325.44953
464.288	2344.46555
464.498	2502.89988
464.709	2445.87044
464.919	2297.98057
465.129	2348.69123
465.339	2486.00311
465.55	2564.14452
465.76	2384.60783
465.97	2587.37266
466.18	2711.93456
466.391	3026.29661
466.601	2754.1488
466.811	3053.70871
467.021	2680.27045
467.231	3146.46849
467.441	2931.38871
467.651	3300.29592
467.862	3237.08991
468.072	3287.65594
468.282	3344.53099
468.492	3207.5886
468.702	3590.8405
468.912	3333.99952
469.122	3496.13536
469.332	3622.40052
469.542	3468.7692
469.752	3870.5223
469.962	3824.28293
470.172	4086.87668
470.382	4095.2744
470.592	3902.04361
470.802	3786.44359
471.012	4156.14785
471.222	4235.88625
471.432	4294.62119
471.642	4468.6288
471.852	4598.51175
472.062	4407.84801
472.272	4682.26177
472.482	4567.09628
472.691	4904.0245
472.901	4738.77269
473.111	4893.56974
473.321	5052.41997
473.531	5240.35918
473.741	5196.52356
473.95	5161.03005
474.16	5083.75624
474.37	5555.25391
474.58	5498.98757
474.79	5882.09164
474.999	5409.34279
475.209	5661.48791
475.419	5684.39308
475.628	6073.34418
475.838	5823.84473
476.048	5932.00284
476.258	6154.35849
476.467	6440.73825
476.677	6484.27883
476.886	6703.8993
477.096	6544.38947
477.306	6689.40404
477.515	6587.90571
477.725	6867.41085
477.935	6670.76564
478.144	6954.28323
478.354	6842.58282
478.563	7299.3129
478.773	7061.78435
478.982	7194.01034
479.192	7437.56483
479.401	7536.5511
479.611	7573.65817
479.82	7373.60969
480.03	7746.73334
480.239	7983.44194
480.449	7810.56876
480.658	8189.05586
480.868	8287.67961
481.077	8382.15162
481.287	8332.86702
481.496	8673.52679
481.705	8659.17212
481.915	8796.52984
482.124	8806.77712
482.333	8989.10366
482.543	8776.03391
482.752	9218.35093
482.961	9271.53844
483.171	9306.30878
483.38	9330.84966
483.589	9398.32483
483.799	9637.41344
484.008	9729.31335
484.217	9774.23092
484.426	9886.49299
484.636	9778.31397
484.845	10074.17766
485.054	9957.90919
485.263	10308.61589
485.472	10306.57807
485.682	10269.89508
485.891	10526.58639
486.1	10337.14392
486.309	10571.38454
486.518	10719.98995
486.727	10929.55774
486.936	10781.04195
487.146	10650.7846
487.355	10978.37153
487.564	10831.91048
487.773	11224.37818
487.982	11210.15065
488.191	11742.33811
488.4	11518.98032
488.609	11523.04237
488.818	11697.67528
489.027	11951.38619
489.236	12182.65996
489.445	11979.79371
489.654	11955.4445
489.863	12478.71367
490.072	12060.94947
490.281	12426.00246
490.49	12563.85328
490.698	12357.06562
490.907	12539.52882
491.116	12648.98185
491.325	12608.44579
491.534	12892.14931
491.743	12948.87698
491.952	13044.08938
492.16	13147.39272
492.369	13210.17901
492.578	13313.46335
492.787	13070.42279
492.996	13410.66217
493.204	13368.13884
493.413	13631.35179
493.622	13939.0371
493.831	13890.45966
494.039	13902.60417
494.248	13878.31506
494.457	14098.92757
494.665	13939.0371
494.874	14181.90306
495.083	14216.3065
495.291	14473.30405
495.5	14505.67991
495.709	14576.50095
495.917	14317.4899
496.126	14772.76947
496.335	14560.31342
496.543	15098.52065
496.752	14618.99287
496.96	15106.61374
497.169	14995.33351
497.377	15106.61374
497.586	15193.61439
497.794	15120.77664
498.003	15138.98608
498.211	15422.24524
498.42	15130.893
498.628	15533.52757
498.837	15517.34094
499.045	15580.06438
499.254	15642.78853
499.462	15788.47372
499.671	15790.49716
499.879	16047.48415
500.087	16061.64943
500.296	16114.26395
500.504	16002.96519
500.713	16110.21664
500.921	16387.47296
501.129	16253.90008
501.338	15962.494
501.546	16668.81424
501.754	16391.52075
501.962	16436.04698
502.171	16774.07533
502.379	17063.57821
502.587	16753.83231
502.795	17320.73613
503.004	16790.26992
503.212	16940.07746
503.42	17164.81596
503.628	17071.67697
503.837	16875.29411
504.045	16970.44557
504.253	17515.15519
504.461	17494.90186
504.669	17596.17169
504.877	17367.31311
505.085	17440.21946
505.294	17808.86503
505.502	17614.40112
505.71	17750.11746
505.918	17814.94253
506.126	18505.96117
506.334	17804.81338
506.542	18199.91508
506.75	17742.01458
506.958	18112.7784
507.166	17950.6814
507.374	17924.34279
507.582	18141.14774
507.79	18163.43843
507.998	18285.03189
508.206	18601.23826
508.414	18335.69977
508.622	18572.85696
508.83	18323.53927
509.037	18380.28945
509.245	18394.47746
509.453	18743.15628
509.661	18974.32145
509.869	19010.82598
510.077	19002.71374
510.285	19306.96701
510.492	18694.49651
510.7	18779.6526
510.908	18745.18382
511.116	19012.85404
511.324	19246.10898
511.531	18964.18153
511.739	19006.76985
511.947	19187.28308
512.155	18915.51134
512.362	19298.85239
512.57	19367.82874
512.778	19353.62734
512.985	19355.6561
513.193	19562.61137
513.401	19595.07887
513.608	19820.35165
513.816	19564.64056
514.024	19562.61137
514.231	19544.34887
514.439	19720.90055
514.646	19846.73832
514.854	20187.7993
515.061	19899.51381
515.269	19972.59225
515.477	20167.49473
515.684	20248.71554
515.892	20183.73835
516.099	20147.19058
516.307	20376.65195
516.514	20579.75978
516.722	20671.17193
516.929	20675.23489
517.136	20273.08309
517.344	20577.72849
517.551	20388.83723
517.759	20709.77071
517.966	20758.5292
518.173	20679.29787
518.381	20740.24449
518.588	20949.52293
518.796	20622.41773
519.003	20782.90935
519.21	20947.49089
519.418	21286.89822
519.625	21437.33038
519.832	21339.75026
520.039	21093.80825
520.247	21526.78689
520.454	21248.2773
520.661	21634.55151
520.868	21164.9424
521.076	21811.472
521.283	21648.7854
521.49	22124.71299
521.697	21964.01316
521.904	21939.60512
522.112	21679.28723
522.319	21998.59214
522.526	21555.25194
522.733	22295.60932
522.94	22145.05642
523.147	22138.95335
523.354	21919.26552
523.561	22399.38049
523.768	22303.7479
523.975	22539.79176
524.183	22197.95107
524.39	22741.28098
524.597	22802.34507
524.804	22834.91386
525.011	22519.44124
525.218	22851.19858
525.425	23007.95015
525.632	22613.05657
525.838	22747.38725
526.045	23121.96376
526.252	22944.83997
526.459	23052.73997
526.666	23075.13548
526.873	23390.75055
527.08	23584.22965
527.287	23679.96111
527.494	23252.27763
527.701	23457.9559
527.907	23598.4871
528.114	23631.07612
528.321	23254.31389
528.528	23836.81199
528.735	23855.14635
528.941	23777.73623
529.148	23417.22498
529.355	23702.3673
529.562	23722.73688
529.768	24285.05075
529.975	23893.85298
530.182	23954.97083
530.388	24203.54284
530.595	24209.65579
530.802	23857.18351
531.008	24260.59793
531.215	24319.69291
531.422	24556.09484
531.628	24403.24478
531.835	24309.50396
532.042	24688.57639
532.248	24900.56828
532.455	24761.95526
532.661	25006.57379
532.868	25143.16689
533.074	25130.93426
533.281	25004.53517
533.487	24961.72455
533.694	25084.04327
533.9	25544.84772
534.107	25241.03076
534.313	25263.4586
534.52	25247.14742
534.726	25565.23976
534.933	25161.51598
535.139	25141.12812
535.345	25414.3435
535.552	25512.22089
535.758	25491.82938
535.965	25510.18173
536.171	25581.55353
536.377	26105.6985
536.584	25546.88692
536.79	25975.16072
536.996	26240.32306
537.203	25638.65273
537.409	25785.48627
537.615	25824.23566
537.821	26256.6417
538.028	26699.32422
538.234	26746.24877
538.44	26481.03363
538.646	26421.87384
538.853	26230.12397
539.059	26501.43386
539.265	26680.96265
539.471	26607.51761
539.677	26656.48075
539.883	27056.3782
540.09	26836.01967
540.296	26719.7261
540.502	27074.74215
540.708	26978.84277
540.914	27342.05192
541.12	27044.13563
541.326	27342.05192
541.532	27393.06778
541.738	27442.04377
541.944	27427.75903
542.15	27813.46804
542.356	27415.51502
542.562	27766.52761
542.768	27472.65412
542.974	27413.47435
543.18	28193.09552
543.386	27797.14087
543.592	28180.84887
543.798	27913.47362
544.004	28207.38334
544.21	28260.45282
544.415	27919.5965
544.621	28260.45282
544.827	27942.04715
545.033	28401.29463
545.239	28515.60478
545.445	29048.4152
545.651	28489.0682
545.856	28923.88227
546.062	28148.19132
546.268	28268.61742
546.474	28340.05843
546.679	27862.45002
546.885	28346.182
547.091	28417.62445
547.297	28140.02698
547.502	28489.0682
547.708	28160.43787
547.914	28607.46356
548.119	29009.62584
548.325	29107.62073
548.531	28489.0682
548.736	28529.89378
548.942	28615.62889
549.147	29001.45971
549.353	29456.74702
549.559	29511.87503
549.764	29223.99277
549.97	29209.70128
550.175	29534.33481
550.381	30183.68388
550.586	29003.50124
550.792	29899.83506
550.997	29740.56251
551.203	29720.14343
551.408	29730.35295
551.614	30179.59956
551.819	29985.6
552.025	30034.60944
552.23	29807.94623
552.435	30216.35856
552.641	30418.53995
552.846	30242.90696
553.052	30177.55741
553.257	30236.78038
553.462	30197.97901
553.668	30643.2002
553.873	30359.31387
554.078	30645.24264
554.283	30408.32849
554.489	30902.6004
554.694	30859.70594
554.899	30700.38894
555.105	30602.35173
555.31	31341.79488
555.515	30794.34412
555.72	31023.11674
555.925	30524.74106
556.131	31255.99326
556.336	31072.14177
556.541	30935.28231
556.746	31125.25317
556.951	31121.16765
557.156	31145.6809
557.361	31180.40839
557.567	31249.86468
557.772	31613.51885
557.977	31215.13631
558.182	31580.82868
558.387	31546.09586
558.592	31556.31135
558.797	31392.86859
559.002	31570.6131
559.207	31952.70626
559.412	32020.14121
559.617	31848.4927
559.822	32273.55261
560.027	31760.63013
560.232	31537.9235
560.437	31768.80325
560.642	31917.96786
560.847	31920.01128
561.051	31934.31527
561.256	31527.7081
561.461	31562.44066
561.666	31905.70738
561.871	32024.22824
562.076	32046.70708
562.281	32349.17352
562.485	31807.62597
562.69	32073.27328
562.895	31958.83662
563.1	32643.51089
563.305	32259.24629
563.509	32324.6475
563.714	32269.46508
563.919	32277.64016
564.123	32204.0657
564.328	32537.21693
564.533	32520.86457
564.737	32003.79315
564.942	32512.68844
565.147	32780.47611
565.351	32978.78894
565.556	32236.76512
565.761	32755.94422
565.965	32676.21802
566.17	32453.41263
566.374	32876.56282
566.579	33166.90239
566.784	33070.79808
566.988	32901.0965
567.193	33232.33863
567.397	33185.30604
567.602	33549.33777
567.806	32993.10112
568.011	33387.76151
568.215	33263.01287
568.42	32725.27986
568.624	32866.34057
568.828	33128.05098
569.033	32839.763
569.237	33277.32774
569.442	33209.8446
569.646	33076.93222
569.85	33665.93017
570.055	33706.84225
570.259	33361.17482
570.463	33845.95321
570.668	33205.75481
570.872	33326.40836
571.076	33602.51898
571.281	33901.19276
571.485	33479.79628
571.689	33485.93215
571.893	33336.6337
572.098	33741.61855
572.302	33817.31145
572.506	33989.17209
572.71	33602.51898
572.914	34062.83421
573.119	33944.1586
573.323	34306.36226
573.527	33625.01937
573.731	34281.8024
573.935	34461.9211
574.139	34255.1965
574.343	33929.83649
574.547	34126.26923
574.751	34887.78234
574.955	34328.87596
575.159	34247.0102
575.364	34468.06205
575.568	34515.14387
575.772	34345.24985
575.976	34206.0796
576.18	34791.53789
576.383	35229.83866
576.587	35246.2279
576.791	34654.35497
576.995	35211.40114
577.199	34979.94051
577.403	34961.50814
577.607	35506.44955
577.811	35449.07086
578.015	34603.17219
578.219	34842.73053
578.422	34820.20543
578.626	34953.3161
578.83	35246.2279
579.034	35649.91409
579.238	35738.0552
579.442	35391.69617
579.645	35272.86108
579.849	35145.84866
580.053	35553.58506
580.257	35563.83228
580.46	35572.03015
580.664	35924.61976
580.868	35572.03015
581.071	35949.22514
581.275	35399.89231
581.479	35565.88174
581.682	35412.18667
581.886	35315.88565
582.09	35594.57471
582.293	36238.40077
582.497	35406.03947
582.7	35610.97116
582.904	35844.65789
583.107	35567.9312
583.311	35250.32526
583.515	35973.83133
583.718	36008.69152
583.922	36620.05118
584.125	36340.97377
584.329	36098.92563
584.532	36503.07064
584.735	36515.3834
584.939	35897.96486
585.142	36074.31521
585.346	36144.04694
585.549	36484.60192
585.753	36737.05285
585.956	36667.25981
586.159	37342.94365
586.363	37158.03032
586.566	36794.53524
586.769	36488.70604
586.973	36591.31717
587.176	36911.56931
587.379	36915.67617
587.582	36706.26086
587.786	36706.26086
587.989	36794.53524
588.192	37092.29746
588.395	37501.19485
588.599	37349.10845
588.802	37016.30289
589.005	36683.68101
589.208	37577.25361
589.411	37464.19707
589.615	36934.15738
589.818	37680.0525
590.021	37359.38327
590.224	37353.21836
590.427	37756.13627
590.63	37334.72402
590.833	37090.24343
591.036	37795.21052
591.239	37466.25243
591.442	37010.14159
591.645	37628.65062
591.848	37696.50213
592.051	37735.57202
592.254	38167.59117
592.457	37772.58823
592.66	37581.36519
592.863	38002.96982
593.066	38233.45478
593.269	38705.05115
593.472	38254.03894
593.675	38752.44263
593.878	38501.11638
594.081	38268.44836
594.284	38499.05688
594.486	38441.39447
594.689	39226.62938
594.892	38890.52385
595.095	38989.47345
595.298	38952.36481
595.5	38911.13657
595.703	38907.01395
595.906	38729.77654
596.109	38389.916
596.311	38649.42382
596.514	38661.78488
596.717	38993.59682
596.92	39290.58027
597.122	38977.10356
597.325	38567.02507
597.528	38803.96062
597.73	39098.75562
597.933	38746.26086
598.136	39424.70157
598.338	38830.75225
598.541	39327.71737
598.743	39214.25287
598.946	38952.36481
599.148	39080.19638
599.351	38979.16518
599.554	39119.37791
599.756	38834.87418
599.959	39721.98298
600.161	39881.03334
600.363	39876.90138
600.566	39579.50936
600.768	39668.29154
600.971	39280.26497
601.173	39191.56352
601.376	39416.44674
601.578	39257.57218
601.78	39424.70157
601.983	39249.32055
602.185	39276.13892
602.388	39819.05832
602.59	39897.56161
602.792	39509.32281
602.995	39428.82905
603.197	39437.08412
603.399	39876.90138
603.601	40005.01181
603.804	39775.6814
604.006	40126.96133
604.208	39912.02439
604.41	39876.90138
604.613	40267.55989
604.815	39544.41462
605.017	39841.7814
605.219	39709.59203
605.421	39610.47774
605.623	40029.81209
605.826	40036.0124
606.028	39800.46765
606.23	39728.17859
606.432	40085.61833
606.634	40704.15377
606.836	40120.75961
607.038	40433.03472
607.24	40507.52152
607.442	40880.17494
607.644	40290.30851
607.846	39878.96736
608.048	40147.63445
608.25	39765.35423
608.452	39831.45257
608.654	40501.31373
608.856	40184.84878
609.058	40106.28929
609.26	39707.5269
609.462	40277.90001
609.664	40749.70425
609.866	39874.83542
610.067	40414.41528
610.269	40339.94646
610.471	40362.6993
610.673	40329.60469
610.875	40495.10605
611.077	41085.29325
611.278	40224.13439
611.48	40451.65507
611.682	39907.89212
611.884	40772.48156
612.085	39974.01362
612.287	40960.96549
612.489	40180.71368
612.69	40304.78559
612.892	40273.76393
613.094	40290.30851
613.295	40002.94519
613.497	40503.38299
613.699	39581.57385
613.9	40300.64923
614.102	40358.56232
614.304	40782.83534
614.505	40437.1725
614.707	40610.99948
614.908	40565.46571
615.11	40894.67451
615.311	40998.25939
615.513	40704.15377
615.714	40546.83984
615.916	40207.5926
616.117	40102.15502
616.319	40294.44476
616.52	40412.3465
616.722	40596.51087
616.923	39949.21679
617.124	39468.04205
617.326	39261.69806
617.527	40147.63445
617.729	40592.37137
617.93	40550.97884
618.131	40306.85379
618.333	40306.85379
618.534	40588.23191
618.735	40110.42362
618.937	40054.6139
619.138	39825.2554
619.339	39905.82599
619.54	40414.41528
619.742	40143.49974
619.943	40036.0124
620.144	39965.74784
620.345	40313.05845
620.546	40762.12806
620.748	40606.85982
620.949	40596.51087
621.15	40824.25334
621.351	40327.53638
621.552	41097.72835
621.753	40944.39163
621.954	41211.73656
622.155	40695.87245
622.356	40853.24868
622.558	40743.49249
622.759	40679.31038
622.96	40079.41725
623.161	40493.03684
623.362	40530.28426
623.563	40652.39855
623.764	40205.52493
623.965	40499.2445
624.166	40375.1105
624.366	40735.21031
624.567	40579.95314
624.768	40658.6088
624.969	40238.60902
625.17	40449.5861
625.371	40737.28084
625.572	40828.39539
625.773	40596.51087
625.973	41153.69154
626.174	41060.42432
626.375	40695.87245
626.576	40486.82929
626.777	40582.02281
626.977	40191.05151
627.178	40468.20724
627.379	40418.55285
627.58	40880.17494
627.78	40849.10635
627.981	41008.61948
628.182	40652.39855
628.382	40861.53347
628.583	40511.6601
628.784	40441.31032
628.984	40375.1105
629.185	41045.91823
629.386	40224.13439
629.586	41450.23389
629.787	41338.22408
629.987	41408.74468
630.188	40851.17751
630.388	40958.89371
630.589	40519.93739
630.79	41238.68919
630.99	41135.03619
631.191	41153.69154
631.391	41603.78617
631.591	41081.14831
631.792	41222.10272
631.992	41356.88995
632.193	41319.55919
632.393	40577.88347
632.594	40859.46226
632.794	40919.53223
632.994	40948.53502
633.195	41207.59018
633.395	41373.48264
633.595	41207.59018
633.796	41489.65312
633.996	40979.61197
634.196	40617.20905
634.397	41149.54583
634.597	41251.12955
634.797	41852.9326
634.997	40815.96937
635.198	41373.48264
635.398	40625.48864
635.598	41282.23232
635.798	41047.99049
635.998	41350.66788
636.199	41504.1771
636.399	41466.83093
636.599	41475.12974
636.799	41977.57283
636.999	41801.01242
637.199	41483.42874
637.399	41626.61721
637.599	41655.67705
637.799	41043.84598
637.999	41553.97813
638.199	41340.29802
638.399	41267.71736
638.599	41242.83593
638.799	41551.90294
638.999	41439.86113
639.199	41502.10221
639.399	41390.07611
639.599	41747.02365
639.799	41537.37701
639.999	42060.69138
640.199	41203.44385
640.399	41093.58327
640.599	40362.6993
640.799	41728.33717
640.998	41755.32907
641.198	41657.75284
641.398	41495.87761
641.598	41790.62931
641.798	41533.22685
641.997	41541.52721
642.197	41143.32734
642.397	42127.20074
642.597	41707.5756
642.796	41450.23389
642.996	40811.82746
643.196	41649.44974
643.395	41790.62931
643.595	41336.15016
643.795	41531.15179
643.994	41717.95623
644.194	41309.19023
644.394	41817.62603
644.593	42056.53498
644.793	42557.74857
644.992	41510.40185
645.192	41408.74468
645.392	41703.42343
645.591	41757.40545
645.791	41688.89124
645.99	41992.11712
646.19	42410.01078
646.389	42060.69138
646.589	42081.47417
646.788	41674.35964
646.987	41464.75626
647.187	42037.83177
647.386	42181.24914
647.586	42224.90989
647.785	42412.09114
647.984	42297.69028
648.184	42730.53906
648.383	42414.17152
648.582	42405.85009
648.782	42453.7011
648.981	42297.69028
649.18	42106.41518
649.38	42505.72079
649.579	42961.76128
649.778	42678.48428
649.977	43228.59828
650.177	42801.34668
650.376	42566.07377
650.575	42006.66203
650.774	42083.55252
650.973	42150.06633
651.173	41676.43555
651.372	41890.31995
651.571	42249.8614
651.77	42204.11836
651.969	42678.48428
652.168	42547.34237
652.367	42297.69028
652.566	42378.80689
652.765	42582.72479
652.964	42797.1811
653.163	42453.7011
653.362	42243.62335
653.561	41848.7787
653.76	42376.72673
653.959	42412.09114
654.158	42312.24824
654.357	42154.22387
654.556	41732.48964
654.755	42845.08837
654.954	42478.66954
655.153	42358.0059
655.352	42087.70925
655.551	42559.82985
655.749	42613.94768
655.948	42655.58276
656.147	42595.21359
656.346	42362.16599
656.545	42743.03342
656.743	42418.33231
656.942	42183.3281
657.141	41933.94363
657.34	42216.59312
657.538	42187.48605
657.737	41431.56315
657.936	42645.17351
658.135	41923.55654
658.333	42021.20756
658.532	42697.22306
658.731	42770.10615
658.929	42703.46955
659.128	42605.62129
659.326	42503.63985
659.525	42755.52825
659.724	42632.68283
659.922	43028.45012
660.121	43155.61337
660.319	42276.89429
660.518	42364.24606
660.716	42955.5099
660.915	42932.58918
661.113	42574.39918
661.312	42499.478
661.51	42468.2658
661.709	42736.78618
661.907	42418.33231
662.105	42089.78764
662.304	42701.38738
662.502	42472.42726
662.701	42820.09241
662.899	42901.33622
663.097	43130.59374
663.296	42749.28078
663.494	42884.66919
663.692	42443.29812
663.891	43026.36589
664.089	42491.15446
664.287	42160.46028
664.485	41925.63393
664.684	42389.20786
664.882	42172.93345
665.08	42014.97369
665.278	42803.42948
665.476	42584.80622
665.675	42060.69138
665.873	42430.81498
666.071	42455.78173
666.269	42572.3178
666.467	42303.92933
666.665	42784.6847
666.863	41965.10678
667.061	42208.27656
667.259	41838.39417
667.457	42152.14509
667.655	42083.55252
667.853	42345.52592
668.051	41938.09856
668.249	41815.54929
668.447	41921.47916
668.645	41840.47105
668.843	42455.78173
669.041	41828.00995
669.239	41166.12898
669.437	41199.29756
669.635	41801.01242
669.833	41653.60127
670.031	41738.71842
670.229	41230.39586
670.426	41421.19093
670.624	41830.08677
670.822	42091.86603
671.02	42110.57219
671.218	41661.90447
671.415	41666.05614
671.613	41815.54929
671.811	41919.40179
672.009	42243.62335
672.206	42172.93345
672.404	41180.63986
672.602	41732.48964
672.799	41863.31757
672.997	42555.66731
673.195	42476.58877
673.392	42676.40226
673.59	42310.16849
673.788	41915.24709
673.985	41699.27131
674.183	41724.18476
674.38	41823.85634
674.578	42116.8078
674.775	41738.71842
674.973	41983.80602
675.17	41805.16575
675.368	41990.03933
675.565	41998.35058
675.763	42023.28554
675.96	41738.71842
676.158	41500.02733
676.355	41678.51146
676.553	41904.86057
676.75	41259.42336
676.947	41587.18271
677.145	41400.44741
677.342	41435.71212
677.539	41504.1771
677.737	41549.82777
677.934	40826.32436
678.131	41580.95661
678.329	41898.6288
678.526	41713.80394
678.723	41672.28375
678.92	41601.7107
679.118	41300.89527
679.315	41682.66334
679.512	41483.42874
679.709	42239.46472
679.906	41597.55978
680.104	41332.00234
680.301	41356.88995
680.498	40617.20905
680.695	40555.11789
680.892	41276.01155
681.089	41157.83731
681.286	40702.08342
681.483	40584.0925
681.68	40615.13918
681.877	40685.52107
682.075	40784.90613
682.272	39926.4877
682.469	40445.44819
682.665	40685.52107
682.862	40793.18941
683.059	40248.94837
683.256	39876.90138
683.453	39887.23136
683.65	40118.69239
683.847	40728.9988
684.044	40522.00674
684.241	40772.48156
684.438	41006.54744
684.635	40054.6139
684.831	40375.1105
685.028	40451.65507
685.225	40246.88048
685.422	39748.83131
685.619	40319.26321
685.815	39994.67882
686.012	40435.10361
686.209	39794.27094
686.405	40437.1725
686.602	40013.2784
686.799	40263.42392
686.996	40273.76393
687.192	40478.55272
687.389	40075.28325
687.586	40075.28325
687.782	39305.02209
687.979	39916.15671
688.175	40017.41176
688.372	39916.15671
688.568	40306.85379
688.765	39631.12461
688.962	39850.04465
689.158	39759.15806
689.355	39728.17859
689.551	39492.81002
689.748	39451.53087
689.944	39682.74624
690.14	39148.25073
690.337	39166.81283
690.533	39713.7223
690.73	39418.51043
690.926	39750.89664
691.123	39305.02209
691.319	39540.28602
691.515	39521.70782
691.712	38911.13657
691.908	38799.83897
692.104	38927.62741
692.301	39016.27603
692.497	38505.23541
692.693	38935.87306
692.889	38744.20029
693.086	38960.61091
693.282	39579.50936
693.478	39245.1948
693.674	39383.42902
693.87	39201.87671
694.067	39296.76956
694.263	39051.32799
694.459	38558.78598
694.655	38791.59578
694.851	38630.88285
695.047	38291.09259
695.243	38239.62994
695.439	38155.24271
695.635	37988.56798
695.831	38433.15755
696.027	38468.16544
696.224	38097.62057
696.42	38097.62057
696.615	38241.68834
696.811	38132.60465
697.007	38313.73786
697.203	37789.04071
697.399	38352.85488
697.595	37671.82787
697.791	38054.40826
697.987	38188.17261
698.183	38227.27969
698.379	37807.55036
698.575	38297.26847
698.77	38081.1583
698.966	38095.56275
699.162	38564.96528
699.358	38597.92291
699.554	38344.61946
699.749	37881.59544
699.945	38276.68251
700.141	38091.44716
700.337	38114.08337
700.532	38756.56386
700.728	38845.17916
700.924	38375.50301
701.119	37719.12119
701.315	37071.75744
701.511	37244.31586
701.706	37739.68481
701.902	37805.4937
702.097	38128.48875
702.293	38101.73622
702.489	38297.26847
702.684	38764.80643
702.88	37970.05192
703.075	37766.41869
703.271	37468.30781
703.466	37353.21836
703.662	36925.94344
703.857	37260.75265
704.053	37445.69909
704.248	37904.22241
704.443	38000.91239
704.639	38488.75951
704.834	38070.86966
705.03	37667.7156
705.225	37474.47398
705.42	37121.05469
705.616	37153.9218
705.811	37133.37964
706.006	37287.46344
706.202	37003.98036
706.397	37182.68203
706.592	37246.37043
706.787	37135.43382
706.983	37702.67087
707.178	37579.3094
707.373	36909.51589
707.568	36854.07613
707.763	36726.78869
707.959	37162.13886
708.154	36792.48221
708.349	36878.71541
708.544	37223.77052
708.739	36459.97777
708.934	36531.80077
709.129	36675.47036
709.324	36406.62856
709.519	36517.43554
709.714	36205.58061
709.909	36681.62834
710.104	36033.29971
710.299	35377.35311
710.494	35805.70518
710.689	36363.54189
710.884	36183.01764
711.079	36720.63027
711.274	36864.34237
711.469	37172.41036
711.664	35961.52813
711.859	36217.88799
712.054	36103.02745
712.249	36308.14875
712.443	36152.25112
712.638	36254.81143
712.833	35662.21225
713.028	36271.22247
713.223	35815.9557
713.417	36265.06829
713.612	36474.34175
713.807	37001.92663
714.002	36759.63459
714.196	37314.17546
714.391	37153.9218
714.586	36903.35567
714.78	36540.0096
714.975	36681.62834
715.17	36636.47118
715.364	36525.6442
715.559	36831.49098
715.754	36033.29971
715.948	36529.74857
716.143	36062.01032
716.337	36090.72207
716.532	36852.0229
716.726	36447.66604
716.921	36507.17486
717.115	35859.0094
717.31	36139.94488
717.504	36082.51859
717.699	36010.74217
717.893	36107.12929
718.088	36482.54988
718.282	35859.0094
718.476	35777.00446
718.671	35123.31612
718.865	34994.27705
719.059	35090.54254
719.254	34898.02168
719.448	34056.69553
719.642	34584.74702
719.837	33907.33065
720.031	34949.2201
720.225	34981.98857
720.419	35268.76361
720.614	34441.45153
720.808	34922.59657
721.002	34511.04971
721.196	34629.7869
721.39	34943.07614
721.585	35322.03219
721.779	34734.20537
721.973	34738.30044
722.167	34353.43689
722.361	34322.73581
722.555	34466.01506
722.749	34269.52267
722.943	33915.51454
723.137	33665.93017
723.331	33854.13669
723.525	33901.19276
723.719	34089.43557
723.913	34500.81439
724.107	33956.43484
724.301	33727.29878
724.495	34150.82567
724.689	34654.35497
724.883	33592.29166
725.077	33821.40309
725.271	33921.6525
725.465	33870.50381
725.659	33972.80335
725.853	33970.75727
726.046	33974.84943
726.24	33269.1478
726.434	32976.74435
726.628	33220.06912
726.822	33263.01287
727.015	34060.78798
727.209	33825.49474
727.403	34384.13884
727.596	34836.58727
727.79	34832.49178
727.984	34345.24985
728.177	35027.04713
728.371	34410.74792
728.565	33852.09081
728.758	33485.93215
728.952	34026.00257
729.146	34220.40514
729.339	34156.96486
729.533	34296.12892
729.726	34154.91846
729.92	34369.81115
730.113	34071.01918
730.307	34527.42643
730.5	34306.36226
730.694	34232.68432
730.887	34343.2031
731.081	34032.1411
731.274	34251.10334
731.468	33567.74641
731.661	33800.94503
731.854	33821.40309
732.048	33987.12598
732.241	33811.17402
732.435	33551.38316
732.628	33185.30604
732.821	33181.21632
733.014	33371.40041
733.208	33316.18309
733.401	34036.23347
733.594	33780.48731
733.788	33670.02132
733.981	34177.42908
734.174	33942.11258
734.367	34015.77177
734.56	33580.01898
734.754	33944.1586
734.947	33854.13669
735.14	33557.51935
735.333	33424.57468
735.526	33025.81516
735.719	32772.29878
735.912	32815.23024
736.105	33207.7997
736.298	33099.42426
736.491	33066.70867
736.684	32984.92271
736.877	32557.65759
737.07	33054.4405
737.263	32833.62977
737.456	32827.49657
737.649	32843.85183
737.842	32831.58537
738.035	33213.9344
738.228	33355.0395
738.421	33841.86149
738.614	33265.05785
738.807	33688.43165
739	33058.52988
739.192	32980.83353
739.385	33404.1228
739.578	33387.76151
739.771	33522.74795
739.964	33301.86784
740.156	33727.29878
740.349	33338.67878
740.542	32970.61061
740.735	32471.80837
740.927	33029.90446
741.12	32618.98095
741.313	33494.11335
741.505	33265.05785
741.698	32755.94422
741.891	32764.12148
742.083	33072.84279
742.276	33355.0395
742.468	33453.20783
742.661	32894.96305
742.854	32498.38031
743.046	32232.67767
743.239	32692.57181
743.431	32805.00836
743.624	32355.30507
743.816	32692.57181
744.009	32717.10279
744.201	32684.39489
744.393	32377.78761
744.586	32024.22824
744.778	32230.63394
744.971	32157.06121
745.163	32594.45135
745.355	32238.80885
745.548	31372.43899
745.74	31666.64131
745.932	31464.3735
746.125	31903.66397
746.317	32322.60368
746.509	31721.8082
746.702	31971.0974
746.894	31247.82182
747.086	31458.24443
747.278	31807.62597
747.471	31883.23001
747.663	31801.49602
747.855	32206.1094
748.047	31791.27948
748.239	31975.18434
748.431	31723.85145
748.623	31958.83662
748.815	31631.90726
749.008	31472.54561
749.2	31586.95806
749.392	31589.00118
749.584	31280.50773
749.776	32103.92701
749.968	31817.84258
750.16	32075.31685
750.352	31915.92444
750.544	31811.71261
750.736	31537.9235
750.928	32071.22971
751.12	31638.03676
751.311	31354.05248
751.503	31623.73462
751.695	31023.11674
751.887	31102.78284
752.079	31644.16628
752.271	30724.89871
752.463	30616.64864
752.654	30226.56946
752.846	30728.98369
753.038	30165.3045
753.23	30918.94131
753.421	31423.51331
753.613	31321.36567
753.805	31135.46702
753.997	30383.82109
754.188	30557.41902
754.38	30543.12237
754.572	30298.04659
754.763	30191.85252
754.955	30246.99134
755.146	30843.36535
755.338	30643.2002
755.53	30050.94606
755.721	30432.83606
755.913	30600.30932
756.104	30745.32367
756.296	30404.24391
756.487	30244.94915
756.679	30443.0476
756.87	30126.50391
757.062	30118.33542
757.253	30024.39909
757.445	29685.43125
757.636	29530.25121
757.827	29260.74253
758.019	29630.30079
758.21	29824.28186
758.401	29675.22185
758.593	29522.08401
758.784	29515.95862
758.975	29714.01773
759.167	29867.16322
759.358	29589.46391
759.549	29356.70185
759.74	28915.71631
759.932	29407.74499
760.123	29446.53821
760.314	29346.49331
760.505	29168.86875
760.696	28572.7611
760.888	28740.15223
761.079	28956.54627
761.27	29027.9997
761.461	28954.50476
761.652	29307.70106
761.843	28295.1525
762.034	28531.93507
762.225	28366.594
762.416	28960.62929
762.607	28787.10466
762.798	28997.37665
762.989	28827.93331
763.18	28787.10466
763.371	28203.3011
763.562	28276.78204
763.753	28231.87685
763.944	28501.31583
764.135	28797.31178
764.326	28917.7578
764.517	28576.84373
764.708	28776.89756
764.899	27956.33399
765.089	28289.029
765.28	27997.15387
765.471	27960.41596
765.662	27615.50615
765.853	27876.73655
766.043	27852.24538
766.234	27842.04078
766.425	27493.06118
766.615	27907.35075
766.806	28417.62445
766.997	28260.45282
767.187	27760.40499
767.378	28156.35568
767.569	27711.42443
767.759	27891.02314
767.95	27474.69482
768.141	27717.54696
768.331	27568.56839
768.522	27497.14261
768.712	27544.07938
768.903	27727.75121
769.093	27144.11805
769.284	27158.40152
769.474	27205.33339
769.665	26903.34969
769.855	27133.91562
770.046	27278.79336
770.236	26670.76183
770.426	26674.84216
770.617	27068.62082
770.807	26483.07364
770.998	26911.51101
771.188	26742.16835
771.378	26950.27759
771.569	26942.11616
771.759	26719.7261
771.949	26668.72168
772.139	26597.31707
772.33	25559.12213
772.52	26270.92059
772.71	26499.39383
772.9	26219.92492
773.09	26183.2087
773.281	26517.75416
773.471	26464.71355
773.661	26105.6985
773.851	25881.34125
774.041	25754.89513
774.231	25624.37779
774.421	25502.02511
774.611	25803.84116
774.802	25646.80989
774.992	25306.27611
775.182	25652.92777
775.372	25777.32859
775.562	25740.61941
775.752	26177.08938
775.942	25618.25998
776.131	25889.49931
776.321	25110.54673
776.511	25332.78266
776.701	25289.96457
776.891	25550.96531
777.081	25090.15942
777.271	25104.43051
777.461	25601.94592
777.651	25255.30299
777.84	25381.71876
778.03	24790.49234
778.22	24902.60679
778.41	25624.37779
778.599	25491.82938
778.789	25328.7047
778.979	25807.92004
779.169	25161.51598
779.358	25006.57379
779.548	24986.18763
779.738	24643.73531
779.927	25059.57887
780.117	24535.714
780.307	24419.54809
780.496	24297.27731
780.686	24978.03323
780.875	24607.04804
781.065	24802.72265
781.254	24545.90439
781.444	24429.73775
781.633	24598.89542
781.823	24537.75208
782.012	24472.53502
782.202	24743.61025
782.391	24444.00338
782.581	24179.09132
782.77	23594.41353
782.96	23822.5521
783.149	23508.87131
783.338	23954.97083
783.528	23647.37093
783.717	23543.49489
783.906	23836.81199
784.096	23794.03275
784.285	24056.8396
784.474	24201.5052
784.663	23645.33407
784.853	23484.43167
785.042	23400.93296
785.231	23622.9288
785.42	23523.12797
785.61	23531.2747
785.799	23311.33045
785.988	23343.91247
786.177	22796.23852
786.366	23113.81958
786.555	23323.54861
786.744	22969.26933
786.933	23378.53176
787.122	23400.93296
787.312	23115.85562
787.501	22838.98502
787.69	22381.06724
787.879	22720.92697
788.068	22891.91134
788.257	22900.05406
788.445	22637.47919
788.634	22948.91149
788.823	22438.04275
789.012	22747.38725
789.201	22649.69069
789.39	22576.42359
789.579	22303.7479
789.768	22873.59043
789.957	23001.84257
790.145	22698.53796
790.334	22969.26933
790.523	22637.47919
790.712	22206.08893
790.9	22492.9861
791.089	22183.70996
791.278	22348.51108
791.467	22102.33566
791.655	22346.47635
791.844	21748.42799
792.033	21396.67087
792.221	21884.68906
792.41	22010.79675
792.599	21516.62099
792.787	21831.80957
792.976	22086.06152
793.164	22132.85032
793.353	22383.10203
793.541	22181.67553
793.73	22002.66033
793.918	21892.8246
794.107	21620.31781
794.295	22031.13807
794.484	21992.48989
794.672	21484.09078
794.861	21652.85226
795.049	21398.70381
795.238	21604.05097
795.426	21553.2187
795.614	21402.7697
795.803	21508.48834
795.991	21394.63794
796.179	21236.08153
796.368	21274.70198
796.556	21490.19012
796.744	20744.30773
796.932	20752.43426
797.121	20695.54993
797.309	20805.25833
797.497	20679.29787
797.685	20882.46778
797.874	20803.22659
798.062	20849.95781
798.25	20579.75978
798.438	21282.83279
798.626	21305.19285
798.814	21146.65028
799.002	20748.37099
799.19	20955.61907
799.378	20866.21267
799.566	21091.77592
799.755	20533.04127
799.943	20770.7192
800.131	20817.4489
800.318	20786.97276
800.506	20801.19484
800.694	20730.08646
800.882	20642.73169
801.07	20860.11707
801.258	20593.97889
801.446	20898.72316
801.634	20551.32216
801.822	21006.42171
802.01	20847.92598
802.197	21059.25918
802.385	20789.00447
802.573	21134.45572
802.761	20973.90773
802.949	21197.46253
803.136	20925.13872
803.324	21425.13236
803.512	21040.96898
803.699	21154.78007
803.887	21136.48814
804.075	21197.46253
804.262	20870.27642
804.45	20856.05335
804.638	21002.35741
804.825	21122.26131
805.013	21043.0012
805.201	21347.88158
805.388	20931.23472
805.576	20573.66593
805.763	20624.44911
805.951	20555.38463
806.138	20524.91654
806.326	20681.32936
806.513	20356.34347
806.701	20772.75088
806.888	20764.62418
807.075	20912.94684
807.263	20512.72957
807.45	20468.04529
807.638	20350.25101
807.825	20502.57387
808.012	20589.91627
808.2	20882.46778
808.387	20772.75088
808.574	21122.26131
808.761	20681.32936
808.949	20307.60483
809.136	20498.51162
809.323	20480.23171
809.51	20770.7192
809.698	20478.20063
809.885	20315.72777
810.072	21024.71129
810.259	21061.29145
810.446	20760.56086
810.633	20939.36277
810.82	21274.70198
811.008	21305.19285
811.195	21606.08431
811.382	21008.45387
811.569	21475.95838
811.756	21040.96898
811.943	20914.97881
812.13	20957.65113
812.317	21012.5182
812.504	20803.22659
812.691	20947.49089
812.878	20849.95781
813.064	20965.7794
813.251	20640.70028
813.438	20819.48068
813.625	20132.97792
813.812	20315.72777
813.999	20301.51267
814.186	20679.29787
814.372	20323.85077
814.559	20557.41587
814.746	20593.97889
814.933	20652.88883
815.12	20626.48049
815.306	20490.38718
815.493	20480.23171
815.68	20528.9789
815.866	20522.88537
816.053	20693.51841
816.24	20583.82236
816.426	21043.0012
816.613	20693.51841
816.799	20301.51267
816.986	20301.51267
817.173	20386.80634
817.359	20019.2841
817.546	20362.43597
817.732	20362.43597
817.919	20159.37302
818.105	20122.82615
818.292	20171.55561
818.478	20392.89903
818.665	20362.43597
818.851	19958.38212
819.037	19670.16406
819.224	19515.94121
819.41	19722.93006
819.597	19375.94392
819.783	20317.75851
819.969	20124.8565
820.156	20017.25397
820.342	19724.95958
820.528	19891.39432
820.714	19566.66975
820.901	19978.68236
821.087	20159.37302
821.273	20528.9789
821.459	20122.82615
821.646	20271.05244
821.832	19810.20311
822.018	19836.58952
822.204	19347.54108
822.39	19231.90931
822.576	19345.51234
822.762	19375.94392
822.948	19203.51057
823.134	19288.70921
823.32	18945.92994
823.507	19240.02338
823.693	19769.61003
823.879	19568.69895
824.065	19785.84706
824.25	19749.31412
824.436	19430.72311
824.622	19211.62441
824.808	19459.12833
824.994	19548.40718
825.18	19371.88632
825.366	19203.51057
825.552	19175.11263
825.738	19505.79581
825.923	19335.36869
826.109	19485.50533
826.295	19102.09304
826.481	19181.19783
826.667	19345.51234
826.852	19294.7951
827.038	19063.55705
827.224	19221.76681
827.409	19126.43232
827.595	18680.3045
827.781	18621.51109
827.966	19067.61341
828.152	18343.80685
828.338	18905.37201
828.523	18343.80685
828.709	18982.43345
828.894	18560.69377
829.08	18617.4565
829.266	18700.57886
829.451	18960.12559
829.637	18710.71618
829.822	18501.90701
830.008	18718.82611
830.193	18806.01185
830.378	18441.09652
830.564	18546.50357
830.749	18278.9519
830.935	18574.88417
831.12	18193.83555
831.305	18684.35934
831.491	18035.77947
831.676	18149.25339
831.861	18122.91022
832.047	18589.07475
832.232	18341.78008
832.417	17889.90087
832.602	17993.22965
832.788	18177.62365
832.973	18439.06956
833.158	18270.8453
833.343	18035.77947
833.528	18287.05856
833.714	18076.30457
833.899	18155.33268
834.084	17401.74061
834.269	17656.93748
834.454	17349.08715
834.639	17663.01422
834.824	17300.48577
835.009	17760.24615
835.194	17640.73298
835.379	17695.42401
835.564	17462.4972
835.749	17756.19467
835.934	17448.32041
836.119	17509.07916
836.304	17332.88649
836.489	17535.40883
836.674	17278.21072
836.859	17379.46389
837.044	17606.29912
837.228	17588.06981
837.413	17565.7899
837.598	17764.29765
837.783	16966.39646
837.968	17162.79113
838.152	16927.93038
838.337	16968.42101
838.522	16741.68662
838.707	16923.88137
838.891	16379.3774
839.076	16478.5502
839.261	16160.80845
839.445	16778.12396
839.63	16614.16194
839.815	16940.07746
839.999	16818.61083
840.184	17150.64225
840.368	17225.56201
840.553	17521.23125
840.737	16848.97663
840.922	17357.18754
841.106	16931.9794
841.291	16889.46524
841.475	16727.51675
841.66	16541.29472
841.844	15924.04687
842.029	16284.25685
842.213	16697.15314
842.397	16537.24663
842.582	16529.15046
842.766	16498.79015
842.951	16272.11409
843.135	16264.01896
843.319	16089.98019
843.504	15812.75509
843.688	15964.51755
843.872	15968.56464
844.056	15820.84892
844.241	15964.51755
844.425	16185.09287
844.609	16004.98877
844.793	15636.71842
844.977	16112.24029
845.161	15616.48476
845.346	15938.21155
845.53	15580.06438
845.714	15511.27097
845.898	15578.04104
846.082	15705.51349
846.266	15634.69505
846.45	15525.43425
846.634	15404.03555
846.818	15642.78853
847.002	15499.13103
847.186	15812.75509
847.37	15727.77095
847.554	15855.24789
847.738	15782.4034
847.922	15976.65886
848.106	15849.17746
848.29	15474.85122
848.473	15553.76092
848.657	15189.56785
848.841	15084.35774
849.025	15201.70747
849.209	14884.05231
849.392	15242.17291
849.576	14944.7513
849.76	14991.28694
849.944	14977.12394
850.127	14833.46944
850.311	14956.89105
850.495	15430.33844
850.678	15215.87037
850.862	15189.56785
851.046	14918.44846
851.229	15102.5672
851.413	14875.95907
851.596	15236.10309
851.78	14985.21709
851.964	15361.54641
852.147	14926.54165
852.331	14969.03079
852.514	14665.5311
852.698	14374.15067
852.881	14335.70244
853.065	14457.11598
853.248	14364.03277
853.431	14177.85556
853.615	13866.17036
853.798	14246.66201
853.982	14246.66201
854.165	14297.25359
854.348	14254.75674
854.532	14426.76312
854.715	14115.11819
854.898	14281.06441
855.081	13999.75679
855.265	14376.17425
855.448	13864.14623
855.631	14001.78074
855.814	13528.09873
855.997	13588.83693
856.181	13645.52309
856.364	13756.8634
856.547	13532.14804
856.73	13750.79054
856.913	13663.74308
857.096	13443.05974
857.279	13196.00184
857.462	13825.68729
857.645	13566.56663
857.828	13548.34515
858.011	13485.58006
858.194	13459.25816
858.377	13129.16361
858.56	13603.00872
858.743	12914.43567
858.926	13511.90133
859.109	13364.0889
859.292	13321.56361
859.475	13289.16216
859.658	13309.41319
859.841	12987.36844
860.023	12829.3388
860.206	12770.57579
860.389	13151.44358
860.572	12839.46988
860.755	12669.24898
860.937	12626.68732
861.12	12914.43567
861.303	12839.46988
861.486	12896.20142
861.668	12667.22229
861.851	12488.84993
862.034	12320.56644
862.216	12608.44579
862.399	12271.89735
862.581	12318.53864
862.764	12188.74478
862.947	12790.83942
863.129	12442.22177
863.312	12415.86518
863.494	12563.85328
863.677	12863.78392
863.859	12651.00859
864.042	12302.316
864.224	11734.21791
864.406	11985.88083
864.589	11811.35418
864.771	12024.43094
864.954	11746.39816
865.136	11918.9185
865.318	11659.09939
865.501	11717.9771
865.683	11622.5508
865.865	11872.24253
866.048	11553.5065
866.23	11683.46349
866.412	11488.51378
866.594	11784.96686
866.777	11632.70348
866.959	11774.81751
867.141	11689.55431
867.323	11699.7055
867.505	11269.09
867.687	11354.43521
867.869	11604.27541
868.052	11732.18784
868.234	11139.00526
868.416	11336.14844
868.598	11177.62864
868.78	11082.07956
868.962	11254.86405
869.144	11360.53062
869.326	10980.40529
869.508	11012.94406
869.69	11053.61353
869.872	11470.23283
870.054	11533.19731
870.236	11581.9378
870.417	11309.7328
870.599	11425.54277
870.781	11035.31281
870.963	11208.1181
871.145	11061.7469
871.327	11220.31323
871.508	11409.29067
871.69	11768.72779
871.872	11273.15446
872.054	11529.13536
872.235	11175.59593
872.417	11478.35779
872.599	11269.09
872.78	11370.68943
872.962	11208.1181
873.144	11132.90648
873.325	10730.16603
873.507	11035.31281
873.689	10913.28503
873.87	11427.57424
874.052	11344.27599
874.233	11291.44404
874.415	11124.77462
874.596	11246.73471
874.778	10693.53074
874.959	10897.01159
875.141	10781.04195
875.322	10838.01422
875.503	11106.47732
875.685	11301.60456
875.866	10984.4728
876.048	11017.0112
876.229	10962.10098
876.41	10858.35924
876.592	10850.22137
876.773	10742.37693
876.954	10280.08523
877.136	10542.87733
877.317	10656.89152
877.498	10844.11785
877.679	10724.06042
877.86	11126.8076
878.042	11008.87687
878.223	11370.68943
878.404	11118.67562
878.585	11366.62593
878.766	10703.7076
878.947	10970.23634
879.128	11069.8801
879.309	10850.22137
879.49	10962.10098
879.672	11008.87687
879.853	10813.59866
880.034	11134.93942
880.215	10966.16869
880.396	11000.74236
880.576	10695.56613
880.757	11031.24587
880.938	10907.18258
881.119	11155.2682
881.3	11147.13682
881.481	11269.09
881.662	11425.54277
881.843	11653.00816
882.023	11529.13536
882.204	11447.88838
882.385	11008.87687
882.566	10986.50653
882.747	10667.06947
882.927	11325.98878
883.108	10776.97215
883.289	11010.91047
883.469	10962.10098
883.65	10968.20252
883.831	10951.93153
884.011	11106.47732
884.192	11332.08461
884.373	11234.5404
884.553	10976.33775
884.734	11102.41114
884.914	10980.40529
885.095	11419.44831
885.275	11130.87353
885.456	11238.60521
885.636	11151.20253
885.817	10988.54025
885.997	10630.4274
886.178	10982.43905
886.358	10671.14057
886.538	10976.33775
886.719	11000.74236
886.899	11094.27864
887.08	11075.97988
887.26	11332.08461
887.44	11049.54678
887.621	10996.67503
887.801	10685.38903
887.981	11305.6687
888.161	11187.79206
888.342	11106.47732
888.522	10608.03306
888.702	11114.60956
888.882	11098.34491
889.062	11297.54038
889.242	10835.97965
889.423	10756.62244
889.603	11080.04634
889.783	11141.03816
889.963	10917.35328
890.143	11088.17915
890.323	11025.14536
890.503	11415.38528
890.683	11086.14596
890.863	11169.49772
891.043	11092.24548
891.223	11685.49377
891.403	11267.05775
891.583	11328.02073
891.763	10897.01159
891.943	11204.05298
892.122	11130.87353
892.302	11175.59593
892.482	10939.72781
892.662	11049.54678
892.842	10679.28262
893.022	11084.11277
893.201	10726.09564
893.381	10870.56569
893.561	10980.40529
893.741	11330.05268
893.92	11206.08554
894.1	11328.02073
894.28	10817.66803
894.459	11139.00526
894.639	10711.84887
894.819	10758.65746
894.998	10654.85589
895.178	10461.41451
895.357	10502.14847
895.537	10736.27153
895.716	10660.96274
895.896	10748.48222
896.075	10890.90886
896.255	11187.79206
896.434	11063.78022
896.614	11234.5404
896.793	11045.47999
896.973	10974.30396
897.152	10929.55774
897.331	11065.81352
897.511	10838.01422
897.69	10693.53074
897.87	10756.62244
898.049	10797.32068
898.228	10475.67197
898.407	10500.11189
898.587	10210.78549
898.766	10632.46317
898.945	10365.66935
899.124	10605.99713
899.304	10186.32299
899.483	10141.46992
899.662	10088.45306
899.841	10278.04723
900.02	10019.10892
900.199	10161.85851
900.378	10047.66438
900.557	10263.78082
900.737	9835.47037
900.916	10123.119
901.095	9880.37076
901.274	10035.42667
901.453	10129.2361
901.632	10049.70395
901.811	10084.37444
901.989	10402.34111
902.168	10039.50596
902.347	10316.76702
902.526	9925.26401
902.705	9933.42566
902.884	9872.20759
903.063	10137.39203
903.242	9821.18237
903.42	9884.45226
903.599	9786.47989
903.778	9790.56276
903.957	9627.20041
904.135	9933.42566
904.314	9551.6118
904.493	9749.73134
904.672	9614.94425
904.85	9541.39547
905.029	9336.9845
905.207	9455.56255
905.386	9492.35154
905.565	9668.05022
905.743	9404.45805
905.922	9435.12197
906.1	9361.52241
906.279	9590.43026
906.457	9238.80901
906.636	9831.38816
906.814	9277.67473
906.993	9130.36187
907.171	9095.56679
907.35	9306.30878
907.528	9118.08182
907.707	9347.20892
907.885	9165.15201
908.063	9402.41366
908.242	9079.1909
908.42	9197.89116
908.598	8755.53615
908.777	9017.77145
908.955	8679.67852
909.133	8700.18307
909.311	8708.38437
909.49	8886.69044
909.668	8632.51103
909.846	8689.93102
910.024	8589.43644
910.202	8597.64176
910.38	8523.78305
910.559	8540.19821
910.737	8540.19821
910.915	8665.32423
911.093	8406.78974
911.271	8595.59046
911.449	8429.37224
911.627	8343.13557
911.805	7979.3276
911.983	8252.75556
912.161	7835.27386
912.339	8328.75946
912.517	8143.83804
912.695	8271.24547
912.872	8223.99031
913.05	8513.52296
913.228	8367.7781
913.406	8460.16282
913.584	8067.76803
913.762	8207.55128
913.939	7932.00678
914.117	8020.46736
914.295	7932.00678
914.473	8197.27624
914.65	7991.67038
914.828	8131.50423
915.006	7847.62529
915.184	7917.60264
915.361	7530.36591
915.539	7882.61695
915.716	7491.18856
915.894	7757.03074
916.072	7577.78075
916.249	7583.96446
916.427	7555.1055
916.604	7715.838
916.782	7573.65817
916.959	7381.86314
917.137	7326.14557
917.314	7565.41275
917.492	7241.50683
917.669	7369.48284
917.847	6910.85203
918.024	7163.02806
918.201	6741.16764
918.379	6977.02893
918.556	6770.149
918.733	6662.4813
918.911	6222.88115
919.088	6807.40417
919.265	6297.60403
919.442	6625.19724
919.62	6422.07486
919.797	6877.7549
919.974	6695.61643
920.151	6857.06624
920.328	6538.17203
920.506	6950.14735
920.683	6741.16764
920.86	6521.59118
921.037	6463.54649
921.214	6399.26149
921.391	6314.205
921.568	6722.5344
921.745	6436.59099
921.922	6587.90571
922.099	6297.60403
922.276	6552.67906
922.453	6114.89445
922.63	6399.26149
922.807	6239.48886
922.984	5956.95335
923.161	6019.31477
923.338	6164.74235
923.514	5909.12856
923.691	5932.00284
923.868	5698.96761
924.045	5871.69176
924.222	5865.45156
924.399	5888.33129
924.575	5719.78637
924.752	5990.21541
924.929	5769.74174
925.105	5948.63689
925.282	5728.11321
925.459	5767.66054
925.635	5713.54099
925.812	5907.04894
925.989	5519.82896
926.165	5773.90408
926.342	5532.33266
926.518	5759.3355
926.695	5275.83761
926.871	5426.02418
927.048	5014.80958
927.224	5067.04421
927.401	4889.38768
927.577	5181.9094
927.754	4998.09145
927.93	5035.70517
928.107	4966.74097
928.283	5190.26049
928.459	5246.62057
928.636	5311.30929
928.812	4797.3592
928.988	4914.47868
929.165	4671.79498
929.341	4897.75171
929.517	4780.62202
929.693	4864.29339
929.87	4393.17403
930.046	4479.10639
930.222	4361.72619
930.398	4529.3911
930.574	4355.43604
930.751	4636.2037
930.927	4338.66134
931.103	4728.30895
931.279	4378.49898
931.455	4621.54658
931.631	4334.46745
931.807	4353.33928
931.983	4277.84149
932.159	4189.72564
932.335	3960.87128
932.511	4051.18268
932.687	3723.36396
932.863	4051.18268
933.039	3895.73971
933.215	4154.04906
933.391	3925.15637
933.566	3836.89462
933.742	3489.82036
933.918	3750.70062
934.094	3369.80475
934.27	3451.92697
934.445	3302.40252
934.621	3635.02335
934.797	3304.50911
934.973	3382.44069
935.148	3256.05331
935.324	3026.29661
935.5	2956.70045
935.675	2939.82619
935.851	2678.15941
936.027	2861.7706
936.202	2469.10563
936.378	2872.31981
936.553	2458.54434
936.729	2424.74641
936.904	2264.17041
937.08	2342.3527
937.255	2057.03534
937.431	2213.45083
937.606	1693.34141
937.782	1936.52631
937.957	1773.7044
938.133	1689.11165
938.308	1591.82424
938.483	1655.27313
938.659	1517.79857
938.834	1629.89381
939.009	1333.78997
939.185	1426.85146
939.36	1291.49015
939.535	1338.01999
939.71	1274.57045
939.886	1384.55056
940.061	1194.20423
940.236	1380.32048
940.411	1175.17081
940.586	1276.68541
940.761	1084.23797
940.937	1257.65091
941.112	978.51417
941.287	1162.48203
941.462	800.93799
941.637	904.51724
941.812	828.41614
941.987	980.6285
942.162	769.23442
942.337	893.947
942.512	826.30238
942.687	862.23749
942.862	598.07705
943.037	803.05163
943.212	714.28698
943.386	703.72099
943.561	602.30222
943.736	623.42883
943.911	519.921
944.086	754.44019
944.26	648.7824
944.435	729.07982
944.61	642.44384
944.785	800.93799
944.959	589.62687
945.134	686.81598
945.309	667.79872
945.483	557.94055
945.658	644.55668
945.833	720.6267
946.007	606.52744
946.182	771.34792
946.357	600.18963
946.531	703.72099
946.706	642.44384
946.88	716.40021
947.055	574.83955
947.229	724.85324
947.404	707.94735
947.578	720.6267
947.752	773.46144
947.927	784.02915
948.101	771.34792
948.276	841.09888
948.45	691.04216
948.624	775.57496
948.799	633.9926
948.973	684.7029
949.147	589.62687
949.321	792.48349
949.496	743.87318
949.67	767.12093
949.844	640.33102
950.018	760.78051
950.193	619.20341
950.367	794.5971
950.541	710.06055
950.715	729.07982
950.889	602.30222
951.063	811.50632
951.237	798.82435
951.411	819.96116
951.585	718.51345
951.759	921.43002
951.933	771.34792
952.107	951.02856
952.281	794.5971
952.455	851.66808
952.629	754.44019
952.803	910.85947
952.977	623.42883
953.151	860.12359
953.325	691.04216
953.499	927.77245
953.672	682.58984
953.846	862.23749
954.02	735.41977
954.194	796.71072
954.368	669.9117
954.541	733.30644
954.715	598.07705
954.889	893.947
955.062	803.05163
955.236	838.98507
955.41	716.40021
955.583	853.78195
955.757	650.89528
955.93	948.91433
956.104	627.6543
956.278	796.71072
956.451	743.87318
956.625	703.72099
956.798	669.9117
956.972	870.69318
957.145	589.62687
957.319	760.78051
957.492	617.09072
957.665	819.96116
957.839	665.68575
958.012	769.23442
958.185	648.7824
958.359	710.06055
958.532	665.68575
958.705	716.40021
958.879	684.7029
959.052	775.57496
959.225	762.89398
959.398	860.12359
959.572	767.12093
959.745	710.06055
959.918	760.78051
960.091	809.39263
960.264	724.85324
960.438	822.07489
960.611	644.55668
960.784	877.03503
960.957	665.68575
961.13	824.18863
961.303	777.68849
961.476	843.21271
961.649	667.79872
961.822	716.40021
961.995	653.00817
962.168	724.85324
962.341	619.20341
962.514	754.44019
962.686	536.81802
962.859	665.68575
963.032	602.30222
963.205	699.49467
963.378	579.06443
963.551	697.38152
963.723	562.16522
963.896	657.23398
964.069	623.42883
964.242	676.25072
964.414	608.64007
964.587	657.23398
964.76	532.59368
964.932	627.6543
965.105	475.57071
965.278	644.55668
965.45	564.27757
965.623	555.82823
965.795	534.70585
965.968	602.30222
966.14	693.15527
966.313	560.05288
966.485	505.13686
966.658	674.1377
966.83	541.04242
967.003	585.40185
967.175	581.17689
967.348	646.66954
967.52	581.17689
967.692	735.41977
967.865	488.24157
968.037	583.28936
968.209	551.60365
968.382	513.58486
968.554	564.27757
968.726	600.18963
968.898	543.15464
969.071	473.45896
969.243	454.45383
969.415	408.00217
969.587	403.77968
969.759	365.78019
969.932	471.34722
970.104	488.24157
970.276	454.45383
970.448	524.14517
970.62	431.22705
970.792	446.00751
970.964	365.78019
971.136	513.58486
971.308	405.89092
971.48	412.22473
971.652	283.46719
971.824	427.0042
971.996	452.34223
972.168	467.12378
972.339	353.11491
972.511	433.33849
972.683	403.77968
972.855	441.78444
973.027	279.24676
973.199	348.89329
973.37	384.77926
973.542	395.33488
973.714	365.78019
973.886	437.56144
974.057	424.8928
974.229	277.13656
974.401	355.22575
974.572	357.33661
974.744	329.89685
974.915	361.55837
975.087	310.90184
975.259	370.00209
975.43	302.46008
975.602	365.78019
975.773	296.12896
975.945	332.0075
976.116	321.45445
976.288	344.67174
976.459	228.60739
976.63	336.22884
976.802	268.69598
976.973	327.78622
977.145	348.89329
977.316	338.33954
977.487	272.91624
977.659	348.89329
977.83	270.8061
978.001	323.56502
978.172	298.23931
978.344	228.60739
978.515	239.15634
978.686	258.14568
978.857	163.21498
979.028	264.47581
979.2	256.03568
979.371	243.37606
979.542	243.37606
979.713	194.85404
979.884	256.03568
980.055	171.65161
980.226	211.73008
980.397	201.1824
980.568	182.19786
980.739	207.51095
980.91	118.92822
981.081	234.9367
981.252	203.2919
981.423	150.56067
981.594	203.2919
981.765	156.88773
981.936	215.94929
982.106	142.12488
982.277	262.36575
982.448	209.6205
982.619	150.56067
982.79	167.43326
982.96	175.87005
983.131	188.52586
983.302	243.37606
983.472	266.58589
983.643	146.34273
983.814	167.43326
983.984	260.25571
984.155	196.96348
984.326	165.32411
984.496	194.85404
984.667	169.54242
984.837	251.81573
985.008	104.16807
985.178	180.08857
985.349	118.92822
985.519	201.1824
985.69	142.12488
985.86	129.47183
986.031	177.9793
986.201	125.25432
986.371	165.32411
986.542	148.45169
986.712	85.19233
986.882	116.81956
987.053	241.26619
987.223	167.43326
987.393	167.43326
987.563	83.08402
987.734	152.66967
987.904	125.25432
988.074	142.12488
988.244	83.08402
988.414	83.08402
988.585	85.19233
988.755	137.90711
988.925	32.49155
989.095	116.81956
989.265	121.0369
989.435	116.81956
989.605	186.41651
989.775	78.86748
989.945	144.23379
990.115	188.52586
990.285	112.60231
990.455	121.0369
990.625	72.54284
990.795	121.0369
990.965	142.12488
991.134	93.62577
991.304	152.66967
991.474	161.10588
991.644	180.08857
991.814	106.2766
991.984	64.1103
992.153	66.2184
992.323	118.92822
992.493	45.13842
992.662	74.65103
992.832	129.47183
993.002	133.68943
993.171	116.81956
993.341	57.78613
993.511	57.78613
993.68	53.57014
993.85	-5.44397
994.019	116.81956
994.189	127.36306
994.358	13.52282
994.528	9.30781
994.697	49.35423
994.867	91.51738
995.036	116.81956
995.206	49.35423
995.375	17.73793
995.544	32.49155
995.714	17.73793
995.883	118.92822
996.052	7.20034
996.222	125.25432
996.391	7.20034
996.56	93.62577
996.73	83.08402
996.899	112.60231
997.068	45.13842
997.237	93.62577
997.406	83.08402
997.576	40.92271
997.745	102.05957
997.914	49.35423
998.083	40.92271
998.252	43.03055
998.421	62.00222
998.59	17.73793
998.759	2.98547
998.928	93.62577
999.097	34.5993
999.266	38.81488
999.435	13.52282
999.604	83.08402
999.773	70.43467
999.942	-9.65855
1000.111	5.09289
1000.28	68.32652
1000.448	0.87808
1000.617	51.46218
1000.786	62.00222
1000.955	66.2184
1001.124	68.32652
1001.292	24.06077
1001.461	38.81488
1001.63	62.00222
1001.798	-26.51589
1001.967	99.95108
1002.136	0.87808
1002.304	83.08402
1002.473	5.09289
1002.642	93.62577
1002.81	-22.3017
1002.979	74.65103
1003.147	-32.83698
1003.316	-26.51589
1003.484	34.5993
1003.653	93.62577
1003.821	-13.87303
1003.99	74.65103
1004.158	-9.65855
1004.327	26.16843
1004.495	43.03055
1004.663	-3.33665
1004.832	116.81956
1005	7.20034
1005.168	59.89417
1005.337	104.16807
1005.505	59.89417
1005.673	83.08402
1005.842	47.24632
1006.01	-26.51589
1006.178	-28.62294
1006.346	59.89417
1006.514	62.00222
1006.683	51.46218
1006.851	30.38382
1007.019	32.49155
1007.187	51.46218
1007.355	-18.08741
1007.523	-1.2293
1007.691	19.84552
1007.859	-9.65855
1008.027	32.49155
1008.195	49.35423
1008.363	-9.65855
1008.531	74.65103
1008.699	49.35423
1008.867	74.65103
1009.035	24.06077
1009.203	7.20034
1009.37	11.4153
1009.538	-28.62294
1009.706	-7.55127
1009.874	0.87808
1010.042	19.84552
1010.209	-18.08741
1010.377	72.54284
1010.545	28.27611
1010.713	24.06077
1010.88	-89.71665
1011.048	99.95108
1011.216	2.98547
1011.383	45.13842
1011.551	11.4153
1011.718	34.5993
1011.886	-47.58533
1012.054	-5.44397
1012.221	-18.08741
1012.389	-32.83698
1012.556	19.84552
1012.724	-9.65855
1012.891	15.63036
1013.058	-22.3017
1013.226	57.78613
1013.393	-39.15785
1013.561	49.35423
1013.728	-18.08741
1013.895	45.13842
1014.063	13.52282
1014.23	15.63036
1014.397	-15.98024
1014.565	49.35423
1014.732	-18.08741
1014.899	7.20034
1015.066	-58.11912
1015.233	28.27611
1015.401	-26.51589
1015.568	45.13842
1015.735	-81.29121
1015.902	11.4153
1016.069	76.75925
1016.236	40.92271
1016.403	21.95313
1016.57	-49.69214
1016.737	40.92271
1016.904	-5.44397
1017.071	30.38382
1017.238	-30.72997
1017.405	66.2184
1017.572	15.63036
1017.739	80.97574
1017.906	76.75925
1018.073	45.13842
1018.24	-15.98024
1018.407	45.13842
1018.573	-1.2293
1018.74	15.63036
1018.907	-51.79892
1019.074	-39.15785
1019.241	15.63036
1019.407	-60.2258
1019.574	-24.40881
1019.741	57.78613
1019.907	0.87808
1020.074	-30.72997
1020.241	11.4153
1020.407	-11.7658
1020.574	0.87808
1020.74	11.4153
1020.907	57.78613
1021.073	26.16843
1021.24	-1.2293
1021.406	30.38382
1021.573	7.20034
1021.739	-1.2293
1021.906	0.87808
1022.072	-34.94396
1022.239	0.87808
1022.405	-110.77844
1022.571	-15.98024
1022.738	2.98547
1022.904	15.63036
1023.07	49.35423
1023.237	-49.69214
1023.403	13.52282
1023.569	11.4153
1023.735	32.49155
1023.902	-60.2258
1024.068	74.65103
1024.234	28.27611
1024.4	7.20034
1024.566	-15.98024
1024.732	78.86748
1024.898	19.84552
1025.065	76.75925
1025.231	32.49155
1025.397	-1.2293
1025.563	11.4153
1025.729	-20.19457
1025.895	68.32652
1026.061	7.20034
1026.227	11.4153
1026.392	-5.44397
1026.558	-1.2293
1026.724	28.27611
1026.89	-15.98024
1027.056	62.00222
1027.222	24.06077
1027.388	11.4153
1027.553	-18.08741
1027.719	-58.11912
1027.885	15.63036
1028.051	24.06077
1028.216	-18.08741
1028.382	-22.3017
1028.548	-24.40881
1028.713	-39.15785
1028.879	24.06077
1029.045	-47.58533
1029.21	53.57014
1029.376	-1.2293
1029.541	26.16843
1029.707	-3.33665
1029.873	-13.87303
1030.038	28.27611
1030.204	36.70708
1030.369	-18.08741
1030.534	-7.55127
1030.7	15.63036
1030.865	-83.39761
1031.031	-13.87303
1031.196	2.98547
1031.361	-41.26476
1031.527	15.63036
1031.692	53.57014
1031.857	-15.98024
1032.023	-51.79892
1032.188	24.06077
1032.353	-51.79892
1032.518	24.06077
1032.684	-18.08741
1032.849	19.84552
1033.014	-56.01241
1033.179	57.78613
1033.344	26.16843
1033.509	-49.69214
1033.674	-98.14168
1033.839	15.63036
1034.004	-43.37164
1034.17	-43.37164
1034.335	24.06077
1034.5	19.84552
1034.664	-1.2293
1034.829	-9.65855
1034.994	-47.58533
1035.159	2.98547
1035.324	-5.44397
1035.489	-11.7658
1035.654	32.49155
1035.819	-49.69214
1035.984	-34.94396
1036.148	-3.33665
1036.313	91.51738
1036.478	32.49155
1036.643	-24.40881
1036.807	0.87808
1036.972	34.5993
1037.137	7.20034
1037.301	-26.51589
1037.466	-15.98024
1037.631	-5.44397
1037.795	38.81488
1037.96	36.70708
1038.124	-53.90568
1038.289	24.06077
1038.454	7.20034
1038.618	-51.79892
1038.783	-7.55127
1038.947	-41.26476
1039.111	59.89417
1039.276	30.38382
1039.44	-68.65227
1039.605	51.46218
1039.769	26.16843
1039.933	24.06077
1040.098	-81.29121
1040.262	-5.44397
1040.426	-24.40881
1040.591	-15.98024
1040.755	57.78613
1040.919	-7.55127
1041.083	7.20034
1041.248	-1.2293
1041.412	-22.3017
1041.576	-15.98024
1041.74	-49.69214
1041.904	-7.55127
1042.068	-13.87303
1042.232	-24.40881
1042.397	2.98547
1042.561	-20.19457
1042.725	-47.58533
1042.889	-18.08741
1043.053	-22.3017
1043.217	-30.72997
1043.381	57.78613
1043.544	26.16843
1043.708	-51.79892
1043.872	-83.39761
1044.036	-60.2258
1044.2	74.65103
1044.364	-32.83698
1044.528	17.73793
1044.691	2.98547
1044.855	11.4153
1045.019	-32.83698
1045.183	15.63036
1045.346	-32.83698
1045.51	64.1103
1045.674	-41.26476
1045.837	-3.33665
1046.001	24.06077
1046.165	49.35423
1046.328	-112.88447
1046.492	-1.2293
1046.655	9.30781
1046.819	-1.2293
1046.983	11.4153
1047.146	9.30781
1047.31	26.16843
1047.473	-85.50398
1047.636	-9.65855
1047.8	9.30781
1047.963	59.89417
1048.127	-56.01241
1048.29	0.87808
